timestamp,ax,ay,az,gx,gy,gz
683818, 0.647461, 0.155518, -0.692017, -15.319828, -12.573246, -31.982430
683838, 0.569580, 0.429688, -0.736694, -22.705086, -21.240234, -34.057617
683858, 0.457886, 0.841187, -0.818604, 1.342773, -17.395020, 21.545410
683878, 0.572632, 0.781982, -0.829102, 14.465336, 30.578621, 70.678711
683898, 0.517944, 0.471680, -0.751465, 18.493652, 28.564461, 94.421417
683918, 0.595337, 0.233276, -0.721069, 13.366703, 18.310547, 80.749512
683938, 0.598755, 0.146362, -0.649414, 9.155273, 10.437012, 31.127937
683958, 0.616577, 0.118408, -0.656738, 7.812502, 11.108402, 1.770020
683978, 0.630615, 0.208130, -0.688721, 3.417970, 3.967286, -16.357422
683998, 0.676025, 0.303345, -0.763550, -0.549316, -1.708985, -16.967773
684018, 0.710083, 0.360352, -0.787109, -1.647950, -6.164553, -13.549809
684038, 0.646240, 0.345947, -0.723022, -2.014160, -13.427738, -12.512211
684058, 0.591919, 0.318481, -0.693359, -5.554201, -17.150879, -19.104004
684078, 0.571533, 0.310791, -0.706299, -7.385256, -15.563969, -23.986824
684098, 0.586182, 0.339600, -0.730225, -7.019045, -8.300781, -23.559578
684118, 0.615479, 0.354492, -0.732788, -3.784181, -3.723145, -21.850586
684138, 0.602173, 0.363281, -0.741943, -1.770020, -7.324221, -18.493652
684158, 0.587158, 0.362793, -0.740356, -1.708985, -6.408693, -13.793949
684178, 0.585205, 0.359741, -0.730713, -1.098633, -1.770020, -10.375977
684198, 0.602295, 0.348633, -0.719604, -0.122070, 0.610352, -11.352543
684218, 0.611816, 0.352539, -0.714966, -0.427246, -2.746582, -14.404301
684238, 0.597168, 0.366821, -0.726074, -1.770020, -4.943848, -14.038090
684258, 0.598022, 0.382813, -0.730347, -2.807618, -4.882813, -13.366703
684278, 0.588867, 0.371948, -0.715820, -2.380371, -6.103518, -13.854984
684298, 0.570679, 0.365723, -0.730591, -3.112794, -5.859377, -14.221195
684318, 0.558105, 0.385620, -0.738770, -4.455566, -2.380371, -15.380863
684338, 0.557861, 0.421387, -0.757324, -3.051759, -2.746582, -14.526371
684358, 0.549805, 0.423706, -0.763428, -1.770020, -1.403809, -10.803223
684378, 0.546631, 0.414185, -0.741943, -1.892090, 0.122070, -9.155273
684398, 0.542114, 0.405884, -0.729980, -1.831055, 1.525879, -8.544922
684418, 0.545898, 0.415283, -0.740479, -2.502441, 4.699707, -7.141115
684438, 0.562500, 0.420044, -0.731689, -2.319336, 6.652834, -6.591799
684458, 0.567749, 0.417847, -0.725952, -1.647950, 6.408693, -6.347658
684478, 0.568726, 0.429932, -0.727173, -1.464844, 6.774904, -4.089355
684498, 0.588257, 0.420288, -0.724365, -2.502441, 7.080080, 0.793457
684518, 0.583862, 0.435669, -0.729614, -3.356935, -6.042482, 1.708985
684538, 0.564819, 0.397827, -0.723389, -2.868653, -8.239746, -0.488281
684558, 0.538208, 0.396362, -0.726563, -2.380371, -6.286623, -2.807618
684578, 0.523438, 0.392700, -0.736450, -2.929688, -0.915528, -3.967286
684598, 0.524292, 0.421021, -0.729858, -2.319336, 4.882813, -5.310059
684618, 0.539307, 0.437134, -0.734131, -0.610352, 7.873537, -5.554201
684638, 0.546265, 0.442749, -0.730591, 0.244141, 8.361816, -3.906251
684658, 0.545044, 0.423584, -0.721802, -0.183106, 9.582520, -2.197266
684678, 0.570435, 0.422607, -0.705200, -0.244141, 12.207035, -2.319336
684698, 0.594482, 0.417358, -0.692871, -0.793457, 13.916019, -2.441406
684718, 0.604126, 0.427490, -0.691772, -1.464844, 16.113281, -0.549316
684738, 0.639526, 0.435669, -0.663086, -1.098633, 17.761230, 0.610352
684758, 0.665771, 0.428345, -0.669922, 1.037598, 9.216309, -1.464844
684778, 0.656982, 0.422974, -0.687988, 0.915528, 0.000000, -4.638672
684798, 0.640869, 0.422974, -0.683960, 1.708985, -7.507326, -7.751467
684818, 0.591431, 0.419434, -0.704102, 0.793457, -10.925293, -8.056641
684838, 0.567139, 0.422852, -0.702515, 0.305176, -7.019045, -6.530764
684858, 0.573608, 0.415405, -0.693237, 1.831055, -4.150391, -7.690432
684878, 0.570313, 0.418823, -0.706177, 2.685547, -4.760742, -11.962894
684898, 0.554565, 0.444824, -0.704102, 2.746582, -3.356935, -13.305668
684918, 0.557007, 0.435547, -0.704590, 1.770020, 0.427246, -13.427738
684938, 0.589111, 0.446289, -0.679932, 3.173829, -0.305176, -12.878422
684958, 0.671997, 0.512817, -0.677612, 25.207527, -16.357422, -6.103518
684978, 0.745239, 0.318481, -0.804077, 19.226074, -46.447769, -37.292480
684998, 0.417480, 0.359619, -0.818237, 4.882813, -87.158203, -50.231949
685018, 0.283203, 0.397461, -0.796387, -4.821777, -66.833496, -46.081558
685038, 0.209961, 0.441162, -0.751709, -11.779789, -15.014652, -29.846199
685058, 0.318359, 0.536133, -0.651733, -10.437012, 39.489746, 7.202150
685078, 0.756226, 0.492432, -0.621826, -4.760742, 79.467773, 20.263672
685098, 0.824829, 0.453125, -0.636719, -4.882813, 36.254883, 4.821777
685118, 0.799438, 0.421509, -0.671631, -8.483887, -22.888191, -14.160160
685138, 0.589966, 0.405151, -0.705688, -14.282230, -53.161636, -25.756844
685158, 0.427002, 0.477417, -0.734253, -17.944336, -48.034683, -26.367195
685178, 0.339111, 0.610596, -0.769775, -11.047363, -23.376472, -14.648441
685198, 0.354492, 0.637939, -0.784180, -0.488281, 1.647950, 1.159668
685218, 0.415039, 0.523071, -0.784912, 3.356935, 10.070801, 5.981447
685238, 0.447998, 0.432861, -0.759155, -0.976563, 4.760742, -0.061035
685258, 0.448975, 0.439941, -0.746948, -4.577637, 6.835939, -7.507326
685278, 0.458130, 0.534790, -0.727051, -4.211426, 17.395020, -3.845216
685298, 0.515503, 0.531494, -0.703857, -2.502441, 24.169930, 1.586915
685318, 0.581055, 0.512451, -0.680908, -1.220703, 18.554688, 1.159668
685338, 0.591309, 0.492432, -0.693115, -0.183106, 4.516602, -2.868653
685358, 0.550415, 0.498657, -0.703003, -1.953125, -5.310059, -6.652834
685378, 0.512451, 0.503540, -0.702759, -2.929688, -5.981447, -6.347658
685398, 0.493164, 0.506470, -0.705078, -2.746582, -1.403809, -4.760742
685418, 0.486816, 0.482910, -0.695435, -2.380371, 1.403809, -4.699707
685438, 0.447632, 0.540771, -0.727905, 1.586915, -3.784181, 2.868653
685458, 0.521484, 0.536987, -0.697510, -2.380371, 5.920412, -2.075195
685478, 0.521729, 0.529297, -0.716431, 1.281738, 2.868653, -1.708985
685498, 0.514526, 0.527588, -0.709229, -0.122070, -2.441406, -1.953125
685518, 0.488037, 0.534302, -0.688843, 4.455566, -9.399414, 4.333496
685538, 0.537231, 0.499756, -0.720337, -0.183106, 2.197266, -0.732422
685558, 0.493286, 0.512939, -0.687134, 0.244141, 2.807618, -1.464844
685578, 0.524780, 0.523804, -0.715820, 0.671387, 1.281738, -1.770020
685598, 0.511353, 0.542114, -0.710815, 0.732422, 0.610352, -0.671387
685618, 0.518188, 0.523560, -0.706543, 1.892090, -1.403809, 1.831055
685638, 0.508667, 0.492554, -0.698975, 0.976563, -2.319336, 0.366211
685658, 0.503784, 0.505249, -0.708130, 0.061035, -1.586915, -0.732422
685678, 0.501465, 0.515747, -0.712158, 0.549316, -0.061035, -0.427246
685698, 0.502441, 0.514282, -0.709717, 0.488281, 0.793457, -0.122070
685718, 0.502930, 0.519287, -0.709595, 0.488281, 1.342773, 0.549316
685738, 0.507813, 0.513184, -0.702026, 1.098633, 2.441406, 1.586915
685758, 0.513672, 0.501465, -0.705444, 0.732422, 2.990724, 0.793457
685778, 0.514771, 0.517944, -0.703491, 0.610352, 2.319336, 1.098633
685798, 0.516113, 0.532227, -0.709229, 2.136230, 2.258301, 3.051759
685818, 0.523315, 0.533325, -0.708252, 3.479005, 1.770020, 5.187988
685838, 0.511597, 0.529297, -0.716553, 6.225588, 0.122070, 10.192871
685858, 0.502197, 0.540283, -0.705322, 7.629396, 2.807618, 14.953617
685878, 0.495239, 0.585571, -0.722656, 12.329105, 11.901859, 25.207527
685898, 0.513794, 0.614868, -0.723389, 17.883301, 26.550301, 47.668472
685918, 0.522705, 0.689941, -0.703857, 29.724129, 45.532242, 86.547852
685938, 0.465698, 0.651367, -0.699463, 36.682129, 76.416016, 148.193359
685958, 0.531372, 0.376831, -0.675171, 27.038582, 102.294952, 179.138245
685978, 0.649902, 0.191406, -0.638062, 13.916019, 104.675323, 167.297363
685998, 0.793457, 0.123169, -0.610840, 6.408693, 76.599121, 135.070801
686018, 0.809082, 0.088013, -0.613037, 5.981447, 26.794441, 68.542480
686038, 0.710449, 0.057861, -0.592896, 4.455566, 13.977055, 36.437988
686058, 0.689209, 0.040405, -0.585571, -0.061035, 13.793949, 10.620117
686078, 0.755859, 0.015381, -0.566895, -7.080080, 16.723633, -15.686039
686098, 0.820313, 0.150146, -0.551147, -13.366703, 6.958010, -37.292480
686118, 0.868530, 0.273438, -0.559937, -8.972168, -6.958010, -39.978027
686138, 0.869141, 0.337891, -0.615112, -4.638672, -12.146000, -35.522461
686158, 0.799927, 0.367310, -0.603271, -3.723145, -17.456055, -25.451668
686178, 0.731689, 0.345459, -0.624268, -4.089355, -17.578125, -12.451176
686198, 0.696533, 0.330688, -0.613892, -5.737307, -7.873537, -0.915528
686218, 0.726196, 0.293213, -0.603271, -3.051759, 10.070801, 6.530764
686238, 0.769897, 0.248779, -0.598389, -1.953125, 9.033203, 2.014160
686258, 0.785522, 0.255005, -0.603149, -1.464844, -0.671387, -2.502441
686278, 0.772339, 0.265015, -0.606323, -1.831055, -7.507326, -5.554201
686298, 0.750488, 0.294067, -0.602051, -1.525879, -5.371094, -2.624512
686318, 0.748047, 0.286865, -0.584961, -1.647950, 0.793457, 4.333496
686338, 0.768677, 0.267578, -0.578369, -3.540040, 5.737307, 6.958010
686358, 0.779297, 0.265747, -0.567993, -3.784181, 4.089355, 5.187988
686378, 0.788086, 0.270996, -0.580933, -3.479005, 0.671387, 2.563477
686398, 0.784546, 0.278931, -0.594482, -2.990724, -6.530764, 0.305176
686418, 0.763550, 0.287231, -0.601440, -2.868653, -8.605957, 0.549316
686438, 0.745239, 0.283936, -0.601807, -1.770020, -8.300781, 1.403809
686458, 0.728882, 0.270874, -0.611084, -2.563477, -6.774904, 0.427246
686478, 0.721313, 0.268555, -0.615234, -2.319336, -5.310059, -1.892090
686498, 0.717773, 0.262329, -0.617554, -2.258301, -2.563477, -5.676271
686518, 0.717651, 0.276367, -0.618530, -2.258301, 1.037598, -8.483887
686538, 0.723267, 0.291382, -0.615234, -2.746582, 5.920412, -8.666992
686558, 0.749268, 0.300537, -0.598389, -2.075195, 9.460449, -6.469728
686578, 0.773682, 0.301758, -0.585327, -0.915528, 8.972168, -4.089355
686598, 0.779053, 0.288940, -0.576782, -1.159668, 4.089355, -3.906251
686618, 0.781372, 0.293335, -0.568237, -0.610352, 2.868653, -3.051759
686638, 0.790649, 0.287842, -0.572754, 0.488281, 2.319336, -2.990724
686658, 0.787109, 0.285400, -0.580688, 0.000000, -1.403809, -3.295899
686678, 0.780396, 0.283569, -0.576904, -0.061035, -4.211426, -3.417970
686698, 0.769653, 0.280640, -0.580688, -0.427246, -6.713869, -5.615236
686718, 0.746338, 0.286011, -0.588013, -1.220703, -6.774904, -6.958010
686738, 0.744995, 0.302979, -0.592896, -1.586915, -5.004883, -7.873537
686758, 0.746094, 0.313232, -0.598267, -1.342773, -4.821777, -7.324221
686778, 0.743042, 0.319946, -0.605957, -1.098633, -6.408693, -6.896975
686798, 0.726318, 0.309448, -0.608154, -1.220703, -5.920412, -7.202150
686818, 0.711670, 0.312012, -0.606812, -2.319336, -3.173829, -7.446291
686838, 0.716553, 0.316528, -0.601074, -2.380371, 2.319336, -7.141115
686858, 0.729736, 0.311768, -0.596924, -2.380371, 6.103518, -6.896975
686878, 0.744507, 0.312744, -0.590942, -3.112794, 6.286623, -7.568361
686898, 0.753052, 0.322632, -0.586670, -3.112794, 4.516602, -8.789063
686918, 0.759399, 0.344727, -0.586426, -2.807618, 4.333496, -7.995607
686938, 0.768433, 0.352905, -0.585938, -1.586915, 3.845216, -4.211426
686958, 0.772949, 0.341309, -0.576294, -1.037598, 0.915528, -2.502441
686978, 0.760010, 0.329834, -0.573364, -0.549316, -2.624512, -2.868653
686998, 0.750488, 0.321777, -0.578613, -0.427246, -2.807618, -4.089355
687018, 0.742432, 0.333618, -0.583984, -0.122070, -2.685547, -5.432129
687038, 0.738647, 0.342529, -0.587646, 0.305176, -2.624512, -5.187988
687058, 0.732666, 0.343994, -0.595581, -0.122070, -1.953125, -3.662110
687078, 0.725464, 0.355225, -0.595825, -0.427246, 0.610352, -1.342773
687098, 0.729736, 0.349243, -0.590088, 0.427246, 3.417970, 0.366211
687118, 0.736938, 0.342529, -0.588623, 0.732422, 4.333496, 0.549316
687138, 0.750244, 0.340820, -0.587036, 0.732422, 3.112794, 0.000000
687158, 0.753662, 0.343994, -0.587769, 1.220703, -0.671387, -0.366211
687178, 0.751831, 0.342896, -0.582764, 1.159668, -1.953125, 0.122070
687198, 0.744995, 0.331055, -0.579102, 1.159668, -2.258301, -0.244141
687218, 0.736816, 0.325073, -0.577881, 0.000000, -1.159668, -1.159668
687238, 0.739990, 0.332764, -0.581055, 0.000000, 0.061035, -2.136230
687258, 0.745117, 0.346191, -0.587280, 0.305176, 0.854492, -2.197266
687278, 0.747925, 0.352783, -0.583252, 0.610352, 0.305176, -0.610352
687298, 0.745361, 0.349243, -0.587769, 1.037598, 0.427246, 1.159668
687318, 0.741211, 0.328613, -0.583008, 0.549316, 0.061035, -0.244141
687338, 0.737305, 0.324585, -0.579224, 0.549316, -0.305176, -2.685547
687358, 0.739258, 0.351929, -0.586914, 0.488281, 2.563477, -2.807618
687378, 0.752808, 0.349731, -0.581665, 1.770020, 2.502441, -1.342773
687398, 0.752808, 0.348389, -0.586060, 0.854492, 0.549316, -1.098633
687418, 0.748169, 0.344971, -0.578369, 0.610352, -1.281738, -0.732422
687438, 0.741455, 0.342041, -0.577271, 0.671387, -1.281738, -0.366211
687458, 0.740234, 0.340820, -0.580322, 0.488281, 0.305176, -0.244141
687478, 0.743286, 0.340942, -0.581421, 0.427246, 0.427246, -0.976563
687498, 0.752563, 0.351563, -0.583984, 0.244141, -0.488281, -0.549316
687518, 0.754639, 0.346558, -0.580811, 1.281738, -1.831055, -0.183106
687538, 0.734985, 0.328247, -0.578613, -0.305176, -2.014160, -1.342773
687558, 0.729370, 0.342896, -0.577637, -0.610352, 0.915528, -1.037598
687578, 0.741455, 0.351074, -0.580078, -0.122070, 4.455566, 0.488281
687598, 0.753296, 0.344727, -0.577148, -0.122070, 4.882813, 1.037598
687618, 0.754517, 0.343750, -0.575806, -0.183106, 2.868653, 0.549316
687638, 0.747192, 0.341553, -0.576172, -0.122070, 1.953125, -0.061035
687658, 0.743896, 0.340332, -0.571777, 0.061035, 2.929688, -0.305176
687678, 0.740234, 0.343628, -0.573608, 0.427246, 6.042482, 0.671387
687698, 0.734619, 0.343140, -0.565796, -0.122070, 10.681152, 3.540040
687718, 0.733765, 0.352417, -0.570190, -0.122070, 15.930180, 5.920412
687738, 0.781128, 0.357422, -0.568604, 1.647950, 14.282230, 5.432129
687758, 0.796387, 0.339966, -0.571045, 1.037598, 3.234864, 3.601075
687778, 0.785156, 0.326416, -0.561768, 0.915528, -6.896975, 0.610352
687798, 0.752686, 0.327881, -0.560913, -0.061035, -7.385256, -1.037598
687818, 0.745850, 0.336548, -0.554810, -0.183106, -1.464844, 0.244141
687838, 0.757324, 0.336914, -0.551514, -0.183106, 3.295899, 1.770020
687858, 0.774536, 0.336426, -0.551025, -0.427246, 3.479005, 1.525879
687878, 0.783691, 0.348633, -0.554688, 0.549316, -0.122070, 0.671387
687898, 0.772705, 0.341553, -0.560181, 0.793457, -3.540040, 0.732422
687918, 0.756836, 0.339966, -0.561157, 0.793457, -2.685547, 1.647950
687938, 0.752686, 0.332031, -0.563110, 0.854492, -0.488281, 2.685547
687958, 0.753540, 0.328003, -0.564575, -0.366211, 1.220703, 2.563477
687978, 0.758179, 0.332397, -0.560547, -0.854492, 1.770020, 1.708985
687998, 0.762207, 0.331787, -0.555420, -0.427246, 2.136230, 0.976563
688018, 0.765991, 0.326904, -0.556152, 0.000000, 3.540040, 0.183106
688038, 0.775024, 0.322998, -0.553223, 0.366211, 2.319336, -2.075195
688058, 0.778442, 0.332520, -0.555908, 0.488281, -2.380371, -5.004883
688078, 0.775757, 0.348633, -0.558838, 1.281738, -5.187988, -5.126953
688098, 0.767578, 0.345093, -0.555298, 1.647950, -5.981447, -3.540040
688118, 0.753662, 0.337891, -0.559448, 1.098633, -2.502441, -1.403809
688138, 0.755371, 0.335083, -0.559204, 1.342773, -0.061035, -1.708985
688158, 0.758179, 0.331543, -0.563110, 0.732422, 0.366211, -2.014160
688178, 0.760986, 0.333130, -0.560791, 0.183106, 0.000000, -2.075195
688198, 0.763916, 0.335083, -0.560303, 0.244141, 0.122070, -2.075195
688218, 0.765991, 0.333008, -0.557739, 0.488281, -0.488281, -3.234864
688238, 0.758423, 0.337769, -0.559326, 0.061035, -1.159668, -3.845216
688258, 0.763062, 0.351685, -0.558838, 0.610352, -0.305176, -2.990724
688278, 0.772217, 0.351929, -0.557617, 2.075195, -0.793457, -2.563477
688298, 0.758057, 0.338135, -0.560303, 1.586915, -3.540040, -2.929688
688318, 0.749023, 0.338257, -0.560303, 0.854492, -1.586915, -3.417970
688338, 0.754272, 0.349976, -0.558228, 1.464844, 0.854492, -3.601075
688358, 0.759277, 0.344971, -0.565186, 1.342773, 0.610352, -3.845216
688378, 0.761353, 0.345947, -0.566406, 0.854492, -1.953125, -3.662110
688398, 0.748047, 0.344971, -0.563965, -0.122070, -2.319336, -3.173829
688418, 0.743042, 0.348267, -0.562134, -0.671387, 1.953125, -1.892090
688438, 0.755371, 0.347168, -0.560181, -1.037598, 5.065918, -1.831055
688458, 0.769897, 0.351685, -0.555176, -1.098633, 3.417970, -2.502441
688478, 0.771851, 0.359741, -0.555420, 0.061035, -0.122070, -2.990724
688498, 0.753662, 0.346069, -0.555908, -0.854492, -1.281738, -2.319336
688518, 0.746582, 0.343384, -0.555664, -1.159668, 0.061035, -2.563477
688538, 0.751343, 0.352295, -0.560181, -1.708985, 1.770020, -1.770020
688558, 0.756714, 0.367554, -0.556396, -1.586915, 2.746582, -0.854492
688578, 0.763794, 0.357544, -0.549561, -0.427246, 2.014160, -1.159668
688598, 0.763428, 0.348511, -0.552734, -0.671387, -0.549316, -2.685547
688618, 0.757935, 0.351440, -0.552246, -1.037598, -1.281738, -3.479005
688638, 0.756470, 0.355347, -0.553955, -1.037598, -0.671387, -3.784181
688658, 0.759399, 0.363647, -0.556030, -0.732422, -0.549316, -3.112794
688678, 0.763916, 0.368530, -0.552856, -0.244141, -1.525879, -1.647950
688698, 0.761597, 0.369507, -0.552124, 0.244141, -2.624512, -1.647950
688718, 0.752441, 0.356445, -0.553345, 0.183106, -2.136230, -2.014160
688738, 0.749878, 0.354126, -0.552246, -0.366211, -1.159668, -3.356935
688758, 0.757324, 0.364990, -0.555420, -0.061035, -1.892090, -5.126953
688778, 0.759521, 0.378174, -0.562134, 1.037598, -3.784181, -4.821777
688798, 0.755371, 0.375977, -0.563110, 1.464844, -4.577637, -3.173829
688818, 0.748779, 0.371094, -0.554077, 0.976563, -3.906251, -1.525879
688838, 0.752686, 0.357300, -0.552490, 1.342773, -3.356935, -2.990724
688858, 0.742798, 0.358276, -0.557129, 0.488281, -3.051759, -3.845216
688878, 0.752319, 0.373901, -0.562622, 1.159668, -2.685547, -3.967286
688898, 0.754028, 0.374756, -0.561401, 0.915528, -3.540040, -2.685547
688918, 0.753052, 0.372559, -0.561035, 1.342773, -4.699707, -2.868653
688938, 0.741699, 0.374390, -0.564941, 0.854492, -5.371094, -2.563477
688958, 0.734375, 0.378174, -0.563843, 0.854492, -2.990724, -1.037598
688978, 0.738525, 0.370483, -0.557861, 1.098633, -0.732422, -0.793457
688998, 0.747070, 0.374146, -0.562134, 1.037598, -0.488281, -1.281738
689018, 0.755859, 0.383789, -0.565552, 1.647950, -2.441406, -1.342773
689038, 0.757813, 0.375488, -0.564087, 2.258301, -4.882813, -1.098633
689058, 0.756226, 0.356567, -0.567139, 2.258301, -7.751467, -1.831055
689078, 0.748047, 0.355225, -0.571655, 2.380371, -9.277344, -2.990724
689098, 0.747559, 0.364624, -0.572876, 2.136230, -10.131836, -2.990724
689118, 0.746948, 0.368652, -0.574585, 2.075195, -10.986328, -2.258301
689138, 0.741699, 0.360840, -0.569824, 1.342773, -12.573246, -2.197266
689158, 0.742310, 0.368774, -0.567993, 0.427246, -14.343266, -1.953125
689178, 0.745728, 0.380493, -0.580933, -0.305176, -13.977055, -2.014160
689198, 0.736572, 0.403442, -0.574585, 0.366211, -15.747074, -1.708985
689218, 0.718994, 0.394287, -0.583374, 1.586915, -18.676758, -2.685547
689238, 0.694702, 0.388672, -0.598633, 1.525879, -19.714355, -4.882813
689258, 0.665405, 0.395386, -0.618164, 2.502441, -14.831547, -6.591799
689278, 0.667480, 0.399292, -0.630127, 3.662110, -9.277344, -4.943848
689298, 0.674683, 0.379761, -0.628784, 3.845216, -6.591799, -3.967286
689318, 0.679932, 0.372192, -0.630493, 2.990724, -5.371094, -4.272461
689338, 0.679688, 0.376343, -0.627563, 2.502441, -2.502441, -3.784181
689358, 0.695435, 0.383545, -0.624023, 2.441406, -0.305176, -1.770020
689378, 0.706543, 0.382568, -0.618164, 2.197266, -0.183106, 0.366211
689398, 0.713257, 0.376465, -0.610718, 2.136230, -1.831055, 1.098633
689418, 0.707275, 0.366699, -0.607178, 1.403809, -3.112794, 0.671387
689438, 0.698120, 0.376709, -0.613281, 0.854492, -2.563477, -0.366211
689458, 0.698242, 0.385010, -0.619873, 1.037598, -2.197266, -0.244141
689478, 0.695801, 0.390381, -0.626831, 1.464844, -3.540040, 0.122070
689498, 0.682861, 0.381592, -0.630127, 1.464844, -4.638672, -0.244141
689518, 0.662109, 0.380127, -0.631958, 1.098633, -2.929688, -0.427246
689538, 0.661011, 0.387207, -0.636475, 0.854492, 1.037598, 0.000000
689558, 0.672363, 0.387695, -0.632813, 1.220703, 4.882813, 1.647950
689578, 0.686035, 0.379395, -0.629028, 0.854492, 6.042482, 2.258301
689598, 0.691284, 0.379272, -0.622925, 0.366211, 5.310059, 1.464844
689618, 0.692871, 0.379761, -0.617310, 0.854492, 5.249023, 0.793457
689638, 0.701660, 0.373291, -0.615356, 0.549316, 6.286623, 0.488281
689658, 0.716675, 0.377441, -0.609253, 0.732422, 6.530764, 0.427246
689678, 0.736206, 0.370117, -0.609497, 2.014160, 1.831055, -0.976563
689698, 0.707642, 0.349243, -0.614136, 0.488281, -0.732422, -1.342773
689718, 0.710327, 0.358643, -0.601318, -0.915528, 0.366211, -0.732422
689738, 0.718384, 0.372559, -0.598877, -0.244141, 3.051759, 0.061035
689758, 0.739624, 0.374390, -0.604370, 0.427246, 1.220703, 0.488281
689778, 0.741455, 0.374390, -0.605225, 0.671387, -5.004883, -0.854492
689798, 0.721191, 0.370972, -0.611450, 0.915528, -10.375977, -2.380371
689818, 0.682129, 0.375610, -0.620972, 1.159668, -9.460449, -2.990724
689838, 0.673950, 0.377686, -0.626465, 1.159668, -5.798342, -2.929688
689858, 0.673828, 0.391724, -0.630859, 1.037598, -4.211426, -2.990724
689878, 0.675049, 0.397339, -0.629761, 1.098633, -2.502441, -2.136230
689898, 0.681152, 0.386719, -0.623413, 1.037598, -0.732422, -1.098633
689918, 0.690186, 0.383545, -0.621826, 0.671387, 0.976563, 0.000000
689938, 0.702393, 0.377808, -0.616333, 1.037598, 0.915528, 0.061035
689958, 0.700928, 0.368774, -0.614868, 0.671387, 0.000000, -0.671387
689978, 0.698486, 0.385010, -0.616089, 0.427246, -0.427246, -1.220703
689998, 0.701416, 0.396973, -0.619263, 2.441406, -0.061035, -1.770020
690018, 0.687378, 0.371582, -0.630249, 1.098633, -3.845216, -1.281738
690038, 0.687988, 0.384399, -0.616577, 1.281738, -1.708985, -0.854492
690058, 0.684204, 0.372681, -0.622070, 0.976563, 0.061035, -0.854492
690078, 0.690674, 0.384644, -0.621460, 0.122070, 2.197266, 0.549316
690098, 0.705811, 0.378540, -0.617798, 0.854492, 2.441406, 0.854492
690118, 0.706543, 0.365356, -0.615845, 0.305176, 0.549316, 0.549316
690138, 0.708008, 0.368774, -0.613159, -0.305176, 0.000000, 0.366211
690158, 0.712036, 0.369873, -0.612061, 0.366211, -0.122070, -0.183106
690178, 0.710205, 0.369507, -0.616821, 0.061035, -1.770020, -0.732422
690198, 0.698120, 0.385254, -0.619751, -0.061035, -4.028320, -1.281738
690218, 0.686768, 0.389893, -0.624634, 0.122070, -3.723145, -0.915528
690238, 0.682007, 0.396606, -0.626953, 0.061035, -2.746582, 0.427246
690258, 0.680908, 0.396362, -0.623291, 0.366211, -1.098633, 1.586915
690278, 0.684082, 0.377686, -0.624268, 0.610352, -0.915528, 0.671387
690298, 0.679688, 0.370972, -0.627563, -0.061035, -0.122070, -0.427246
690318, 0.684448, 0.377197, -0.627686, 0.183106, 1.892090, -0.549316
690338, 0.691528, 0.377563, -0.626465, 0.427246, 2.441406, -0.854492
690358, 0.692993, 0.377930, -0.623047, -0.061035, 2.014160, -1.342773
690378, 0.695923, 0.399536, -0.620728, 0.122070, 2.136230, -1.037598
690398, 0.703613, 0.390747, -0.615234, 1.403809, 1.281738, 1.281738
690418, 0.698975, 0.379150, -0.613403, 0.793457, 0.061035, 0.915528
690438, 0.695190, 0.375122, -0.608154, 0.671387, 0.915528, 0.122070
690458, 0.699707, 0.371948, -0.612793, 0.366211, 2.014160, -0.244141
690478, 0.709351, 0.372559, -0.613281, 0.244141, 1.464844, -0.732422
690498, 0.714722, 0.373779, -0.619751, 0.549316, -0.671387, -0.976563
690518, 0.714600, 0.376465, -0.620117, 0.732422, -2.441406, -0.183106
690538, 0.704346, 0.372803, -0.616089, 0.732422, -3.784181, -0.061035
690558, 0.692749, 0.372192, -0.615723, 0.549316, -4.211426, -1.281738
690578, 0.684326, 0.386597, -0.619141, -0.244141, -1.831055, -1.831055
690598, 0.692871, 0.389648, -0.621704, 0.061035, -0.732422, -1.220703
690618, 0.693970, 0.397217, -0.626587, 0.366211, -1.342773, -0.183106
690638, 0.693237, 0.391235, -0.625244, 0.854492, -2.014160, 0.793457
690658, 0.687500, 0.377075, -0.621216, 0.915528, -1.892090, 0.000000
690678, 0.683472, 0.376221, -0.622314, 0.488281, -0.732422, -0.976563
690698, 0.687500, 0.385864, -0.621704, 0.427246, 0.793457, -0.488281
690718, 0.697754, 0.388550, -0.621216, 0.549316, 1.586915, 0.610352
690738, 0.703003, 0.390869, -0.615601, 0.732422, 0.122070, 0.976563
690758, 0.700806, 0.380981, -0.617798, 0.793457, -1.098633, 0.671387
690778, 0.690674, 0.371460, -0.619995, 0.427246, -0.793457, 0.610352
690798, 0.692993, 0.375732, -0.621216, 0.183106, 0.427246, 0.244141
690818, 0.698486, 0.382324, -0.623169, 0.488281, 0.427246, 0.366211
690838, 0.701904, 0.385620, -0.620850, 0.854492, -1.098633, 0.000000
690858, 0.697144, 0.386719, -0.620972, 1.037598, -1.953125, 0.305176
690878, 0.692017, 0.387329, -0.615479, 0.915528, -1.342773, 1.159668
690898, 0.694702, 0.384399, -0.615112, 1.159668, 0.305176, 2.075195
690918, 0.704224, 0.385498, -0.617676, 1.220703, 0.244141, 2.441406
690938, 0.703979, 0.370239, -0.617920, 1.403809, -1.281738, 1.831055
690958, 0.689697, 0.355957, -0.619751, 0.061035, -2.563477, -1.953125
690978, 0.686279, 0.375488, -0.625854, -0.244141, -0.488281, -2.075195
690998, 0.693359, 0.386841, -0.623047, 0.366211, 1.342773, -0.854492
691018, 0.696289, 0.393799, -0.624268, 0.610352, 0.671387, 0.305176
691038, 0.700684, 0.384644, -0.618408, 0.671387, -0.061035, 0.732422
691058, 0.698975, 0.370483, -0.613159, 0.610352, -0.366211, 0.183106
691078, 0.700073, 0.371216, -0.615967, 0.061035, -0.061035, -0.671387
691098, 0.705811, 0.385742, -0.616821, 0.366211, -0.305176, -0.305176
691118, 0.702271, 0.383423, -0.619141, 0.732422, -1.464844, 0.671387
691138, 0.692383, 0.375732, -0.619385, 0.488281, -2.197266, 0.183106
691158, 0.684937, 0.376953, -0.622803, 0.366211, 0.183106, -0.183106
691178, 0.691895, 0.380859, -0.622192, 0.183106, 1.647950, 0.122070
691198, 0.702148, 0.380615, -0.619629, 0.427246, 1.281738, 0.122070
691218, 0.703857, 0.376221, -0.618286, 0.488281, -0.244141, -0.183106
691238, 0.703735, 0.374634, -0.616455, 0.244141, -1.159668, -0.610352
691258, 0.700439, 0.378174, -0.616577, 0.366211, -1.037598, -0.305176
691278, 0.701050, 0.372314, -0.614868, 0.488281, -0.671387, -0.122070
691298, 0.698853, 0.376343, -0.617798, 0.122070, -0.976563, -0.549316
691318, 0.698120, 0.383423, -0.620483, 0.183106, -1.281738, -0.549316
691338, 0.696289, 0.376587, -0.619629, 0.366211, -1.403809, -0.061035
691358, 0.690552, 0.381104, -0.619751, 0.061035, -1.342773, -0.610352
691378, 0.691772, 0.392090, -0.622437, 0.610352, -0.427246, 0.122070
691398, 0.697266, 0.380859, -0.617188, 1.098633, 0.061035, 1.220703
691418, 0.700439, 0.368652, -0.617676, 0.610352, -0.122070, 0.854492
691438, 0.702271, 0.368408, -0.615356, 0.183106, -0.244141, -0.183106
691458, 0.703613, 0.378296, -0.618042, 0.122070, -0.854492, -0.854492
691478, 0.701416, 0.389404, -0.621216, 0.427246, -1.342773, -0.183106
691498, 0.698853, 0.383423, -0.618530, 0.976563, -2.319336, -0.061035
691518, 0.689697, 0.370972, -0.618530, 0.488281, -2.441406, -0.549316
691538, 0.689453, 0.381592, -0.619507, 0.305176, 0.915528, 0.244141
691558, 0.701172, 0.380615, -0.617798, 0.671387, 1.647950, 0.671387
691578, 0.706421, 0.378052, -0.618408, 0.488281, -0.732422, -0.366211
691598, 0.698853, 0.377686, -0.619263, 0.427246, -2.563477, -1.098633
691618, 0.688843, 0.380127, -0.620605, 0.305176, -1.159668, -0.366211
691638, 0.692749, 0.378662, -0.618042, 0.488281, 0.976563, 0.610352
691658, 0.700928, 0.373657, -0.618652, 0.488281, 1.037598, 0.122070
691678, 0.702148, 0.374634, -0.618774, -0.061035, -0.671387, -1.098633
691698, 0.694824, 0.385254, -0.619385, 0.183106, -1.159668, -0.976563
691718, 0.694824, 0.378784, -0.616821, 0.549316, 0.854492, 0.610352
691738, 0.699707, 0.375122, -0.615967, 0.305176, 1.220703, 0.732422
691758, 0.707153, 0.378174, -0.617432, 0.305176, 0.488281, 0.488281
691778, 0.707275, 0.379395, -0.616455, 0.549316, -1.708985, -0.244141
691798, 0.696777, 0.377075, -0.618652, 0.305176, -3.173829, -0.549316
691818, 0.687012, 0.380493, -0.617920, 0.183106, -1.525879, -0.183106
691838, 0.691406, 0.385864, -0.619507, 0.488281, 1.037598, 0.793457
691858, 0.702881, 0.378662, -0.617432, 0.549316, 1.159668, 1.220703
691878, 0.704468, 0.374512, -0.617920, 0.366211, -0.610352, 0.610352
691898, 0.701416, 0.371094, -0.616333, 0.305176, -1.525879, -0.183106
691918, 0.692017, 0.370605, -0.618652, -0.061035, 0.122070, -0.915528
691938, 0.699951, 0.382202, -0.619385, -0.122070, 1.220703, -0.793457
691958, 0.708374, 0.392700, -0.619629, 0.610352, 0.000000, 0.122070
691978, 0.701172, 0.382446, -0.616211, 0.793457, -1.525879, 0.793457
691998, 0.693726, 0.371826, -0.613281, 0.427246, -1.037598, 0.549316
692018, 0.698486, 0.371216, -0.615356, 0.183106, 0.305176, -0.183106
692038, 0.703613, 0.376953, -0.617554, 0.122070, 0.000000, -0.549316
692058, 0.703979, 0.385254, -0.618408, 0.183106, -1.098633, -0.610352
692078, 0.699097, 0.383667, -0.618408, 0.610352, -1.831055, -0.183106
692098, 0.688721, 0.372437, -0.618408, 0.122070, 0.000000, -0.244141
692118, 0.700317, 0.380249, -0.614136, 0.122070, 1.586915, -0.061035
692138, 0.707397, 0.380859, -0.616333, 0.427246, 0.610352, 0.000000
692158, 0.707153, 0.385010, -0.614624, 0.488281, -0.976563, 0.183106
692178, 0.703125, 0.374146, -0.610718, 0.915528, -1.831055, -0.122070
692198, 0.694336, 0.373779, -0.617310, 0.305176, -1.892090, -0.671387
692218, 0.696899, 0.386108, -0.617798, 0.427246, -0.488281, 0.061035
692238, 0.702148, 0.385254, -0.620605, 1.098633, -0.244141, 0.732422
692258, 0.698975, 0.372925, -0.616821, 0.793457, -1.708985, 0.305176
692278, 0.694092, 0.374756, -0.615234, 0.305176, -1.342773, -0.427246
692298, 0.700928, 0.380615, -0.616943, 0.610352, 0.183106, 0.610352
692318, 0.704224, 0.376587, -0.617432, 0.366211, -0.366211, 0.915528
692338, 0.700562, 0.369507, -0.615112, 0.122070, -1.403809, 0.244141
692358, 0.697266, 0.370483, -0.620361, -0.305176, -1.525879, -0.427246
692378, 0.698853, 0.374146, -0.620850, -0.061035, -0.427246, -0.061035
692398, 0.706055, 0.371948, -0.618530, -0.122070, -0.183106, 0.427246
692418, 0.708740, 0.369263, -0.608887, -0.488281, -1.403809, 0.183106
692438, 0.702515, 0.381958, -0.610229, -0.915528, -2.380371, -0.610352
692458, 0.697510, 0.400635, -0.611450, -0.610352, -1.892090, 0.549316
692478, 0.691284, 0.392822, -0.614380, -0.122070, -1.525879, 1.770020
692498, 0.688477, 0.385742, -0.617920, 0.183106, -1.464844, 0.732422
692518, 0.682495, 0.382324, -0.625732, 0.183106, 0.000000, 0.549316
692538, 0.687256, 0.369629, -0.623169, 0.305176, 1.342773, 0.427246
692558, 0.692749, 0.369873, -0.623535, -0.183106, 2.380371, 0.000000
692578, 0.704102, 0.377441, -0.623047, 0.122070, 2.563477, 0.000000
692598, 0.710693, 0.379272, -0.615845, 0.915528, 0.915528, -0.549316
692618, 0.708740, 0.382080, -0.611816, 0.854492, -0.671387, -0.610352
692638, 0.706543, 0.390991, -0.607422, 1.159668, -0.915528, 0.549316
692658, 0.708496, 0.378296, -0.605103, 1.525879, -0.549316, 1.403809
692678, 0.717896, 0.364624, -0.605469, 1.403809, -2.197266, 0.183106
692698, 0.712769, 0.375610, -0.605835, 1.281738, -3.051759, -0.488281
692718, 0.711060, 0.399536, -0.617676, 2.380371, -3.173829, 0.915528
692738, 0.705444, 0.396606, -0.623413, 3.540040, -5.310059, 2.319336
692758, 0.681519, 0.371948, -0.626099, 3.234864, -6.835939, 1.647950
692778, 0.688843, 0.365479, -0.621094, 3.234864, -5.554201, -1.586915
692798, 0.675049, 0.342651, -0.638672, 3.173829, -4.394531, -3.234864
692818, 0.683594, 0.342896, -0.629028, 1.586915, 0.549316, -1.647950
692838, 0.717651, 0.355225, -0.619629, 1.953125, 2.075195, -1.708985
692858, 0.735840, 0.363281, -0.614746, 2.075195, -4.943848, -3.173829
692878, 0.722778, 0.364990, -0.612549, 1.525879, -8.728027, -2.868653
692898, 0.714355, 0.374390, -0.617065, 1.403809, -10.864258, -2.380371
692918, 0.698730, 0.381836, -0.629150, 1.342773, -13.061527, -2.563477
692938, 0.670654, 0.385986, -0.640503, 1.281738, -14.038090, -2.319336
692958, 0.651367, 0.379639, -0.643921, 0.976563, -12.023930, -2.197266
692978, 0.639526, 0.378052, -0.650391, 1.037598, -7.629396, -2.868653
692998, 0.642334, 0.385620, -0.657837, 0.610352, -2.990724, -2.502441
693018, 0.658813, 0.390015, -0.659546, 0.976563, -0.671387, -1.037598
693038, 0.660034, 0.383789, -0.655762, 0.671387, -0.305176, 0.366211
693058, 0.659424, 0.372559, -0.644531, -0.488281, 2.258301, -0.366211
693078, 0.675903, 0.376221, -0.647461, -0.366211, 3.784181, -0.183106
693098, 0.693726, 0.371460, -0.645630, -0.061035, 2.319336, -0.061035
693118, 0.686035, 0.361450, -0.640381, -0.610352, 0.427246, -0.122070
693138, 0.684692, 0.362793, -0.638428, -1.342773, -0.061035, -0.610352
693158, 0.682617, 0.373047, -0.632813, -1.770020, 1.037598, -0.122070
693178, 0.687256, 0.384399, -0.630859, -2.075195, 1.831055, 1.159668
693198, 0.684082, 0.395508, -0.627197, -2.868653, 0.854492, 3.601075
693218, 0.685791, 0.391968, -0.633423, -3.173829, 1.220703, 5.310059
693238, 0.687012, 0.383301, -0.634277, -2.746582, 0.000000, 5.065918
693258, 0.676758, 0.375122, -0.646606, -2.868653, -0.549316, 4.882813
693278, 0.672852, 0.367920, -0.635254, -3.234864, 2.136230, 4.821777
693298, 0.675415, 0.363770, -0.625488, -2.990724, 4.699707, 4.455566
693318, 0.690796, 0.381348, -0.628906, -3.234864, 4.455566, 2.258301
693338, 0.679565, 0.383179, -0.638306, -3.417970, 2.502441, 3.417970
693358, 0.685303, 0.398193, -0.622437, -2.563477, 7.446291, 4.577637
693378, 0.688843, 0.390137, -0.634644, 0.793457, 7.263186, 3.417970
693398, 0.680664, 0.366577, -0.636108, 0.671387, 6.958010, 2.929688
693418, 0.680420, 0.371338, -0.628296, 0.244141, 9.826660, 2.624512
693438, 0.700195, 0.363281, -0.629028, 2.136230, 13.549809, 1.342773
693458, 0.723999, 0.370972, -0.622803, 2.197266, 13.671879, -0.305176
693478, 0.731567, 0.363647, -0.612305, 2.563477, 9.399414, -0.671387
693498, 0.718750, 0.345093, -0.610962, 0.061035, 8.728027, 0.671387
693518, 0.750000, 0.370605, -0.606445, -1.953125, 13.427738, 2.319336
693538, 0.800537, 0.381348, -0.604004, 0.061035, 8.728027, 0.122070
693558, 0.794556, 0.374146, -0.598389, -0.061035, -4.577637, -4.760742
693578, 0.739624, 0.373901, -0.582397, -0.915528, -14.038090, -6.469728
693598, 0.810669, 0.449951, -0.628906, 4.882813, -5.065918, -3.112794
693618, 0.933838, 0.373413, -0.609009, 20.202637, -75.256348, -32.836914
693638, 0.631836, 0.335938, -0.628540, 17.578125, -131.286621, -49.072281
693658, 0.354614, 0.305176, -0.603149, 11.840824, -122.802765, -51.696793
693678, 0.192749, 0.265869, -0.597778, 3.723145, -67.138672, -35.705566
693698, 0.253052, 0.267334, -0.603027, -8.666992, 8.056641, -12.634281
693718, 0.537476, 0.368652, -0.620728, -13.488773, 67.382813, -0.854492
693738, 0.823242, 0.464966, -0.672485, -10.192871, 76.843262, -1.342773
693758, 0.977295, 0.521606, -0.709595, -5.798342, 33.752441, -8.422852
693778, 0.875977, 0.537842, -0.699341, -1.159668, -26.977547, -12.817387
693798, 0.646973, 0.463989, -0.685181, 1.525879, -54.687515, -10.375977
693818, 0.426636, 0.378418, -0.685181, -3.356935, -27.648933, -7.568361
693838, 0.443359, 0.400146, -0.702271, -4.516602, 5.615236, -4.272461
693858, 0.546875, 0.435303, -0.726807, -3.356935, 24.353035, -2.441406
693878, 0.628052, 0.461426, -0.727905, -2.929688, 20.507813, -2.258301
693898, 0.647705, 0.451782, -0.690552, -1.831055, 8.178711, -3.234864
693918, 0.632080, 0.446655, -0.664673, -0.610352, 2.075195, -4.333496
693938, 0.616943, 0.436646, -0.658569, -0.305176, 2.685547, -4.211426
693958, 0.627197, 0.439941, -0.648315, -1.220703, 6.774904, -2.502441
693978, 0.650024, 0.428345, -0.645874, 0.122070, 6.530764, -4.211426
693998, 0.642944, 0.431396, -0.665405, 0.122070, -2.746582, -8.117676
694018, 0.627686, 0.439575, -0.673950, -2.380371, -5.981447, -8.666992
694038, 0.609985, 0.465088, -0.669067, -1.953125, -7.751467, -7.934572
694058, 0.595947, 0.452759, -0.673706, -1.037598, -6.530764, -7.690432
694078, 0.592285, 0.445190, -0.673340, -0.244141, -7.080080, -8.789063
694098, 0.590088, 0.456055, -0.683838, -0.488281, -8.789063, -9.277344
694118, 0.575806, 0.476929, -0.682739, -0.854492, -6.713869, -5.004883
694138, 0.574951, 0.453247, -0.678711, 0.488281, -3.601075, -3.845216
694158, 0.577759, 0.443237, -0.676392, -0.366211, -1.159668, -5.981447
694178, 0.579590, 0.459473, -0.676636, -0.488281, 1.647950, -5.737307
694198, 0.599487, 0.469116, -0.678345, 0.793457, 0.915528, -5.615236
694218, 0.593994, 0.464966, -0.672729, -0.610352, -0.427246, -3.173829
694238, 0.598755, 0.467407, -0.665161, 0.488281, -0.732422, -2.868653
694258, 0.597656, 0.457275, -0.670898, 0.549316, -0.671387, -2.319336
694278, 0.603760, 0.466064, -0.671509, 0.427246, -1.953125, -3.356935
694298, 0.598633, 0.476318, -0.674072, 1.281738, -3.540040, -3.540040
694318, 0.581787, 0.469360, -0.676392, 0.915528, -4.150391, -2.380371
694338, 0.571289, 0.463501, -0.673584, 0.793457, -1.525879, -0.915528
694358, 0.583008, 0.457153, -0.678711, 0.732422, 1.037598, -2.258301
694378, 0.593628, 0.473022, -0.681763, 1.281738, -2.563477, -2.685547
694398, 0.579834, 0.470703, -0.681763, 1.220703, -3.417970, -1.770020
694418, 0.581421, 0.459961, -0.673950, 0.976563, -1.342773, -1.525879
694438, 0.582031, 0.460449, -0.675415, 0.976563, -0.610352, -2.380371
694458, 0.584351, 0.474976, -0.678223, 1.098633, -0.793457, -1.708985
694478, 0.588379, 0.475708, -0.680298, 1.708985, -1.464844, -0.549316
694498, 0.575439, 0.463013, -0.676636, 1.281738, -1.464844, -0.061035
694518, 0.575317, 0.456909, -0.681641, 0.671387, 0.366211, -0.305176
694538, 0.580811, 0.462891, -0.683105, 0.244141, 1.586915, -0.549316
694558, 0.588501, 0.462280, -0.686768, -0.061035, -0.549316, -2.136230
694578, 0.572632, 0.457031, -0.678589, -0.976563, -1.708985, -3.906251
694598, 0.568115, 0.478638, -0.681519, -1.159668, 0.244141, -3.845216
694618, 0.576660, 0.495361, -0.679077, 0.671387, 3.173829, -1.159668
694638, 0.588867, 0.474365, -0.673828, 1.281738, 2.746582, 0.976563
694658, 0.596680, 0.451172, -0.675537, 0.366211, 0.793457, -0.671387
694678, 0.592896, 0.452515, -0.675415, -0.854492, -1.098633, -3.601075
694698, 0.575317, 0.473389, -0.677490, -0.854492, -1.037598, -4.089355
694718, 0.583008, 0.496704, -0.677979, 1.098633, 0.549316, -2.624512
694738, 0.586426, 0.474243, -0.675049, 0.793457, -2.197266, -1.159668
694758, 0.585083, 0.464478, -0.671265, 1.708985, -3.601075, -1.281738
694778, 0.562500, 0.457764, -0.678345, -0.244141, -1.220703, -0.549316
694798, 0.570923, 0.473511, -0.674194, 0.061035, 2.380371, -0.061035
694818, 0.579102, 0.475464, -0.681763, 0.000000, 4.089355, -0.549316
694838, 0.585449, 0.478516, -0.678467, 0.061035, 2.929688, 0.305176
694858, 0.590332, 0.478149, -0.671143, 0.549316, 0.366211, 0.488281
694878, 0.580322, 0.472534, -0.670898, 0.915528, -0.061035, 0.793457
694898, 0.580200, 0.474854, -0.670288, 1.098633, 0.854492, 1.281738
694918, 0.588989, 0.473511, -0.672729, 1.831055, 1.464844, 1.464844
694938, 0.589966, 0.462158, -0.676270, 0.732422, -0.793457, 0.244141
694958, 0.578125, 0.471191, -0.675415, 0.732422, -0.488281, 0.183106
694978, 0.583496, 0.473877, -0.676880, 1.220703, 0.793457, 0.305176
694998, 0.584839, 0.472412, -0.675049, 1.342773, 0.122070, 0.732422
695018, 0.590698, 0.468262, -0.677002, 1.098633, -0.915528, 0.366211
695038, 0.582764, 0.461914, -0.671997, 1.037598, -1.586915, -0.610352
695058, 0.576782, 0.468506, -0.675293, 0.488281, -0.671387, -0.854492
695078, 0.586304, 0.482544, -0.673096, 1.037598, 0.549316, 0.183106
695098, 0.596069, 0.471069, -0.675903, 1.586915, -0.549316, 0.915528
695118, 0.590942, 0.451416, -0.674927, 0.549316, -1.892090, -0.183106
695138, 0.577515, 0.462158, -0.673584, -0.610352, -1.281738, -2.929688
695158, 0.576538, 0.488281, -0.680054, 0.000000, -0.793457, -2.380371
695178, 0.580811, 0.489868, -0.680908, 1.342773, 0.305176, 0.793457
695198, 0.589111, 0.461548, -0.670898, 1.159668, 0.183106, 1.098633
695218, 0.593384, 0.456421, -0.672119, 0.244141, -2.136230, -1.403809
695238, 0.588623, 0.472046, -0.677856, -0.183106, -3.295899, -2.441406
695258, 0.580322, 0.482666, -0.674683, 0.488281, -3.112794, -1.098633
695278, 0.577515, 0.478394, -0.673218, 1.098633, -1.708985, 0.671387
695298, 0.578857, 0.468750, -0.673096, 1.098633, 0.122070, 1.281738
695318, 0.585693, 0.463257, -0.675293, 0.854492, -0.610352, -0.183106
695338, 0.586792, 0.464844, -0.678711, 0.366211, -2.319336, -0.854492
695358, 0.576050, 0.469360, -0.681030, 0.000000, -1.831055, -0.793457
695378, 0.574341, 0.472412, -0.674805, 0.305176, -0.305176, -0.244141
695398, 0.576660, 0.468262, -0.679199, 0.427246, 0.610352, 0.061035
695418, 0.584106, 0.475220, -0.678101, 0.427246, 0.671387, 0.427246
695438, 0.585205, 0.470459, -0.676147, 0.854492, 0.305176, 0.793457
695458, 0.582397, 0.462891, -0.673218, 0.305176, 0.244141, 0.122070
695478, 0.581665, 0.472046, -0.674194, 0.122070, 0.000000, -0.915528
695498, 0.584106, 0.480225, -0.680298, 0.366211, 0.244141, -0.061035
695518, 0.590332, 0.470825, -0.674072, 1.342773, -1.037598, 1.342773
695538, 0.589966, 0.457153, -0.675049, 1.037598, -2.685547, -0.122070
695558, 0.579346, 0.465698, -0.680054, 0.122070, -2.868653, -1.525879
695578, 0.574951, 0.475952, -0.676270, 0.671387, -2.014160, -0.549316
695598, 0.579224, 0.471558, -0.678101, 0.915528, -0.244141, 0.427246
695618, 0.580933, 0.465576, -0.674438, 0.915528, -0.244141, 0.366211
695638, 0.584229, 0.464478, -0.686035, 0.183106, -0.427246, -0.915528
695658, 0.579590, 0.464600, -0.674072, -0.305176, -0.732422, -1.464844
695678, 0.582397, 0.464600, -0.677246, -0.183106, -0.488281, -2.075195
695698, 0.582275, 0.476074, -0.675415, 0.061035, -1.281738, -1.708985
695718, 0.587524, 0.472168, -0.679321, 0.549316, -2.563477, -2.014160
695738, 0.580200, 0.456665, -0.682373, -0.366211, -3.540040, -3.967286
695758, 0.578003, 0.464111, -0.677246, -1.281738, -4.455566, -6.103518
695778, 0.563965, 0.474609, -0.681885, -0.610352, -3.845216, -6.408693
695798, 0.556152, 0.479736, -0.690063, -0.915528, -1.647950, -6.408693
695818, 0.581421, 0.479858, -0.685181, 1.586915, -2.563477, -11.230473
695838, 0.584351, 0.437256, -0.692139, 4.150391, -10.498047, -26.489265
695858, 0.528564, 0.423706, -0.705444, -1.220703, -16.906738, -32.653809
695878, 0.487793, 0.444336, -0.682739, -2.075195, -13.366703, -40.344238
695898, 0.455688, 0.447998, -0.706055, -10.803223, 4.882813, -40.100098
695918, 0.469360, 0.556763, -0.704102, -18.127441, 19.897461, -26.428230
695938, 0.556030, 0.619507, -0.666504, -14.099125, 24.963387, -13.305668
695958, 0.576294, 0.565796, -0.645142, -12.756351, 20.080566, -6.774904
695978, 0.552856, 0.562378, -0.609131, -10.803223, 16.601563, -1.281738
695998, 0.596436, 0.598999, -0.599976, -4.577637, 10.070801, 4.821777
696018, 0.677856, 0.569214, -0.631104, -2.502441, 9.582520, -2.075195
696038, 0.644287, 0.564819, -0.621826, 0.854492, -9.643555, -4.760742
696058, 0.585938, 0.562256, -0.635742, 2.929688, -23.437508, -6.408693
696078, 0.512451, 0.561157, -0.681885, -0.305176, -24.414070, -4.638672
696098, 0.546875, 0.562622, -0.676514, -7.507326, -28.930672, -0.305176
696118, 0.554932, 0.557861, -0.666504, -15.991215, -32.531738, 6.958010
696138, 0.585327, 0.537354, -0.641479, -27.099617, -35.095215, 16.845703
696158, 0.610474, 0.532593, -0.610474, -35.339355, -37.597656, 25.939949
696178, 0.615601, 0.568604, -0.578003, -35.400391, -36.132813, 26.977547
696198, 0.653564, 0.577026, -0.606079, -26.916512, -50.903336, 15.686039
696218, 0.525024, 0.578735, -0.676514, -28.015144, -61.462418, 13.977055
696238, 0.477905, 0.588623, -0.682617, -26.062019, -67.687988, 8.850098
696258, 0.370117, 0.596313, -0.721802, -23.010262, -68.054199, 6.408693
696278, 0.285034, 0.578613, -0.758545, -16.418457, -43.212891, 5.798342
696298, 0.273071, 0.584961, -0.757935, -11.413578, -29.724129, 5.798342
696318, 0.281006, 0.590698, -0.751221, -8.911133, -12.878422, 8.300781
696338, 0.345825, 0.598022, -0.729004, -4.577637, 1.098633, 5.920412
696358, 0.356934, 0.600464, -0.720581, -3.601075, 19.958496, 5.859377
696378, 0.434082, 0.629272, -0.682983, -0.488281, 38.269043, 5.676271
696398, 0.579712, 0.624146, -0.607666, 20.751953, 31.372078, -4.333496
696418, 0.519043, 0.640137, -0.713013, 54.260269, -7.385256, -27.343758
696438, 0.361450, 0.510864, -0.790649, 66.894531, -11.718754, -22.460945
696458, 0.224976, 0.366943, -0.743408, 49.438492, 32.165527, 1.464844
696478, 0.256958, 0.378418, -0.697876, 35.522461, 74.951172, 15.380863
696498, 0.416016, 0.347046, -0.621460, 13.671879, 105.957062, 16.845703
696518, 0.471436, 0.481567, -0.594360, 5.676271, 106.628448, 23.742683
696538, 0.707520, 0.555542, -0.640137, -15.441898, 118.103058, 11.474613
696558, 0.753540, 0.855835, -0.541138, 10.559082, 92.468292, 21.301270
696578, 0.806396, 0.546143, -0.654663, 8.972168, 77.941895, 17.700195
696598, 0.681274, 0.545532, -0.583008, 1.037598, 34.301758, 8.972168
696618, 0.695435, 0.513916, -0.621460, 3.173829, 15.808109, -1.342773
696638, 0.627441, 0.530518, -0.640625, 0.244141, 3.051759, -6.347658
696658, 0.580688, 0.520264, -0.622314, -0.915528, 2.868653, -0.427246
696678, 0.556030, 0.517578, -0.602539, -0.793457, 11.962894, 3.051759
696698, 0.633423, 0.623901, -0.596436, -5.737307, 21.911621, -2.197266
696718, 0.696289, 0.632080, -0.605835, -9.094238, 17.883301, -8.117676
696738, 0.730347, 0.556885, -0.617188, -14.892582, -11.108402, -11.535648
696758, 0.702759, 0.589478, -0.587646, -19.104004, -41.870117, -14.770512
696778, 0.667480, 0.566772, -0.611816, -21.789551, -55.847183, -18.005371
696798, 0.630249, 0.552734, -0.620728, -25.634773, -60.607925, -21.911621
696818, 0.587646, 0.530151, -0.631470, -29.663094, -58.288589, -22.338875
696838, 0.501465, 0.607544, -0.575439, -31.738289, -34.484863, -23.620613
696858, 0.525146, 0.557251, -0.632202, -26.489265, -12.756351, -25.939949
696878, 0.563477, 0.593872, -0.655029, -30.151375, -9.521484, -28.564461
696898, 0.529907, 0.520508, -0.602783, -30.761726, -19.226074, -26.123055
696918, 0.473389, 0.583374, -0.580200, -24.536140, -13.305668, -22.338875
696938, 0.457153, 0.544189, -0.609375, -20.812988, -2.136230, -15.502934
696958, 0.516724, 0.561035, -0.557129, -15.991215, 6.225588, -11.474613
696978, 0.499023, 0.532349, -0.585449, -6.103518, 4.150391, -3.906251
696998, 0.579712, 0.609497, -0.572144, -2.868653, 1.464844, -3.173829
697018, 0.562988, 0.644043, -0.608521, -2.502441, -11.779789, -4.577637
697038, 0.511719, 0.657959, -0.556885, -1.037598, -3.479005, -12.878422
697098, 0.513794, 0.642700, -0.612061, 1.037598, -6.958010, 0.244141
