timestamp,ax,ay,az,gx,gy,gz
463859, 0.291016, 0.691528, -0.566650, 39.184570, 28.930672, -1.281738
463879, 0.219604, 0.647705, -0.558105, 33.508301, 40.405273, -18.249512
463899, 0.253662, 0.699829, -0.448730, 30.151375, 50.720230, -27.038582
463919, 0.303101, 0.701538, -0.407471, 38.146973, 55.114761, -36.193848
463939, 0.343262, 0.735840, -0.415283, 41.564941, 55.908218, -44.250504
463959, 0.374268, 0.799316, -0.422241, 43.212891, 53.039566, -45.959488
463979, 0.419800, 0.858521, -0.432373, 42.968750, 54.077164, -52.795425
463999, 0.345459, 0.862427, -0.419678, 47.973648, 47.607437, -55.664078
464019, 0.346680, 0.809326, -0.440186, 42.053223, 46.203629, -44.738785
464039, 0.412720, 0.820801, -0.388062, 34.729004, 52.856461, -33.813477
464059, 0.491211, 0.870117, -0.309448, 28.320320, 49.377457, -18.554688
464079, 0.523682, 0.812744, -0.353149, 24.047859, 45.227066, -9.033203
464099, 0.523193, 0.775024, -0.359009, 15.441898, 37.536621, -13.854984
464119, 0.456299, 0.794922, -0.317749, 12.146000, 30.029305, -12.512211
464139, 0.425903, 0.809937, -0.300293, 12.146000, 20.507813, -7.507326
464159, 0.464111, 0.807739, -0.333252, 8.056641, 20.202637, -1.953125
464179, 0.519287, 0.906494, -0.272461, 3.845216, -1.281738, -1.098633
464199, 0.389404, 0.808960, -0.377197, 5.737307, -3.417970, -2.563477
464219, 0.325806, 0.792236, -0.437866, 0.915528, -1.892090, -0.244141
464239, 0.330566, 0.859741, -0.407593, -1.831055, 5.249023, 1.831055
464259, 0.360107, 0.880493, -0.432861, 1.831055, 0.000000, 2.868653
464279, 0.338623, 0.799072, -0.519165, -3.479005, -4.516602, 3.601075
464299, 0.318970, 0.847412, -0.530151, -9.277344, -0.305176, 2.136230
464319, 0.332764, 1.031982, -0.445435, -2.685547, 5.249023, 9.643555
464339, 0.417480, 0.786621, -0.474487, -2.502441, 6.164553, 13.610844
464359, 0.430176, 0.742065, -0.403442, -3.417970, 1.892090, 6.530764
464379, 0.386353, 0.883179, -0.467407, -5.065918, -1.708985, 3.295899
464399, 0.385376, 0.830933, -0.463135, -8.361816, -4.089355, 3.662110
464419, 0.436646, 0.823975, -0.410278, -7.263186, -4.089355, 2.197266
464439, 0.433228, 0.855103, -0.395508, -4.089355, -10.681152, -1.098633
464459, 0.393188, 0.850952, -0.404663, -0.488281, -9.643555, -2.685547
464479, 0.377930, 0.831299, -0.427979, 1.464844, -10.070801, -2.807618
464499, 0.348022, 0.841187, -0.443604, 1.708985, -11.169437, -0.671387
464519, 0.310669, 0.822510, -0.456665, 1.281738, -5.310059, 2.075195
464539, 0.357300, 0.822266, -0.456543, -0.122070, 2.258301, 4.272461
464559, 0.443481, 0.822876, -0.439453, -2.441406, 0.549316, 0.549316
464579, 0.433472, 0.828369, -0.413696, -1.953125, -7.385256, -3.295899
464599, 0.385864, 0.837646, -0.414307, 0.183106, -13.732914, -3.479005
464619, 0.318115, 0.834351, -0.433594, 1.403809, -15.991215, -1.708985
464639, 0.290283, 0.823730, -0.480103, 1.159668, -3.234864, 2.685547
464659, 0.363525, 0.832642, -0.440796, 0.183106, 4.638672, 4.516602
464679, 0.437866, 0.827271, -0.424194, 0.366211, 2.502441, 1.831055
464699, 0.427368, 0.828003, -0.423828, 1.953125, -3.417970, -1.831055
464719, 0.345703, 0.824829, -0.455444, 2.075195, -7.080080, -1.586915
464739, 0.334229, 0.821167, -0.471680, -0.183106, -4.150391, 1.281738
464759, 0.384644, 0.831055, -0.425659, -0.061035, 1.037598, 1.403809
464779, 0.389526, 0.826782, -0.432129, 1.525879, 2.075195, 0.061035
464799, 0.392578, 0.826904, -0.441162, 1.770020, 0.671387, -1.159668
464819, 0.374512, 0.824585, -0.448486, 1.831055, -1.403809, -0.915528
464839, 0.363403, 0.826416, -0.445679, 1.342773, -3.662110, -0.183106
464859, 0.345825, 0.825562, -0.456787, 0.610352, -2.075195, 1.037598
464879, 0.357300, 0.827759, -0.439575, 0.854492, 2.563477, 2.197266
464899, 0.378662, 0.825073, -0.444580, 1.281738, 2.929688, 2.807618
464919, 0.414673, 0.822510, -0.446167, 0.854492, 0.732422, 1.342773
464939, 0.382080, 0.820068, -0.455444, 0.061035, -4.211426, -0.610352
464959, 0.335938, 0.824219, -0.453857, -0.732422, -2.990724, 1.098633
464979, 0.356567, 0.827881, -0.433838, -0.427246, 0.732422, 3.234864
464999, 0.404663, 0.828003, -0.426636, 1.037598, 0.549316, 2.136230
465019, 0.406250, 0.823120, -0.440552, 1.953125, 0.122070, 0.122070
465039, 0.395630, 0.821167, -0.449585, 1.586915, -1.647950, -1.586915
465059, 0.359985, 0.822144, -0.456177, 1.037598, -2.990724, -1.342773
465079, 0.320679, 0.820923, -0.462158, -0.122070, -1.098633, 1.892090
465099, 0.370117, 0.821533, -0.447998, -0.976563, 2.807618, 4.272461
465119, 0.439453, 0.821899, -0.430908, -0.488281, 1.525879, 1.281738
465139, 0.420776, 0.827026, -0.426880, 1.708985, -3.723145, -4.089355
465159, 0.337891, 0.823242, -0.453247, 2.319336, -5.065918, -3.662110
465179, 0.315674, 0.819702, -0.474854, 0.610352, -1.281738, 0.549316
465199, 0.357666, 0.819458, -0.459351, -1.037598, 2.685547, 3.417970
465219, 0.425293, 0.825073, -0.427246, -0.793457, 2.807618, 1.708985
465239, 0.427856, 0.825562, -0.422852, 0.915528, -1.708985, -1.831055
465259, 0.397339, 0.824585, -0.435425, 2.075195, -5.493164, -3.784181
465279, 0.332642, 0.820557, -0.462769, 1.770020, -5.981447, -2.563477
465299, 0.328857, 0.819824, -0.469604, -0.244141, -2.136230, 1.220703
465319, 0.405273, 0.823853, -0.434326, -0.244141, 0.976563, 1.159668
465339, 0.401855, 0.827271, -0.431030, 1.220703, -0.915528, -0.915528
465359, 0.378418, 0.825562, -0.443237, 2.197266, -2.685547, -2.014160
465379, 0.317139, 0.818237, -0.471436, 1.159668, -0.671387, 1.098633
465399, 0.389893, 0.821411, -0.454590, -0.549316, 0.915528, 2.441406
465419, 0.396484, 0.823364, -0.437134, 0.061035, -0.305176, 0.793457
465439, 0.403076, 0.825562, -0.439453, 0.793457, -0.061035, -0.549316
465459, 0.371216, 0.822266, -0.443359, 1.464844, -2.563477, -1.892090
465479, 0.340820, 0.821533, -0.462158, 0.671387, 0.305176, 0.427246
465499, 0.392212, 0.822632, -0.442749, 0.732422, 2.014160, 0.610352
465519, 0.417725, 0.822754, -0.439209, 1.098633, -0.793457, -2.075195
465539, 0.341187, 0.822021, -0.449585, 1.892090, -3.845216, -2.441406
465559, 0.308594, 0.822998, -0.474731, 0.244141, 1.892090, 2.319336
465579, 0.399536, 0.820923, -0.446411, -0.488281, 4.333496, 3.356935
465599, 0.425293, 0.827759, -0.429688, 0.305176, 1.770020, 0.610352
465619, 0.403320, 0.821411, -0.438232, 1.342773, -2.624512, -2.014160
465639, 0.348267, 0.816895, -0.457764, 0.976563, -2.563477, -0.976563
465659, 0.367065, 0.827148, -0.454956, 0.488281, -0.427246, 0.549316
465679, 0.387329, 0.817627, -0.442627, 0.366211, 0.061035, 0.305176
465699, 0.387329, 0.823242, -0.452148, 0.427246, -2.868653, -0.915528
465719, 0.331909, 0.820190, -0.444580, 0.915528, -1.525879, 0.549316
465739, 0.357544, 0.823242, -0.455811, 0.610352, 3.051759, 2.929688
465759, 0.433105, 0.816406, -0.444702, 0.427246, 3.295899, 1.037598
465779, 0.419800, 0.822754, -0.443481, 0.488281, -1.464844, -2.685547
465799, 0.375366, 0.821167, -0.446289, 0.549316, -3.601075, -3.295899
465819, 0.307739, 0.820190, -0.469604, 0.061035, -2.502441, 0.000000
465839, 0.351929, 0.821655, -0.450928, -1.159668, 3.540040, 3.295899
465859, 0.421631, 0.825439, -0.425903, -0.122070, 3.601075, 1.831055
465879, 0.432617, 0.823364, -0.428101, 1.586915, 0.183106, -1.831055
465899, 0.342285, 0.818726, -0.469238, 1.098633, -2.990724, -1.892090
465919, 0.333008, 0.816040, -0.472778, -1.098633, -0.732422, 1.708985
465939, 0.370117, 0.823364, -0.436401, -1.403809, 3.540040, 3.356935
465959, 0.438965, 0.827148, -0.416382, 0.549316, 2.807618, 0.793457
465979, 0.402222, 0.822266, -0.440430, 2.136230, -1.342773, -2.380371
465999, 0.342651, 0.817627, -0.473267, 0.549316, -1.953125, -0.488281
466019, 0.366333, 0.820923, -0.454102, -0.549316, 0.549316, 1.464844
466039, 0.385254, 0.823975, -0.434204, -0.244141, 1.098633, 1.403809
466059, 0.396973, 0.823730, -0.432983, 0.976563, 1.403809, 0.427246
466079, 0.357910, 0.821533, -0.453857, 0.915528, 1.586915, 0.610352
466099, 0.379395, 0.819336, -0.451416, 0.366211, 0.854492, 2.258301
466119, 0.398193, 0.821899, -0.441284, 0.305176, 1.525879, 1.708985
466139, 0.415649, 0.818848, -0.437988, 0.427246, -0.244141, -0.366211
466159, 0.384399, 0.818359, -0.448486, 0.793457, -1.037598, -1.281738
466179, 0.361206, 0.821411, -0.446899, 0.183106, -0.610352, 0.122070
466199, 0.394531, 0.821411, -0.437012, 0.488281, -0.976563, 0.549316
466219, 0.392334, 0.819946, -0.442261, 0.854492, -1.037598, -0.183106
466239, 0.395386, 0.818115, -0.451172, 0.610352, -1.831055, -0.976563
466259, 0.361938, 0.818726, -0.456909, -0.305176, -1.403809, -0.305176
466279, 0.396973, 0.821777, -0.439453, -0.610352, -0.244141, 0.793457
466299, 0.395386, 0.822266, -0.437500, -0.305176, -1.770020, -0.366211
466319, 0.384521, 0.822021, -0.440918, 0.183106, -1.770020, -0.854492
466339, 0.359009, 0.821411, -0.444458, 0.549316, -1.342773, 0.427246
466359, 0.368896, 0.820190, -0.450806, 0.000000, 0.732422, 1.892090
466379, 0.404907, 0.819946, -0.438721, 0.061035, 1.342773, 1.220703
466399, 0.401611, 0.823364, -0.432495, 0.854492, 0.732422, -0.427246
466419, 0.396118, 0.822388, -0.441895, 1.403809, 0.305176, -1.159668
466439, 0.389160, 0.817505, -0.450195, 1.159668, -1.464844, -1.403809
466459, 0.374756, 0.822998, -0.444580, 0.549316, -0.122070, -0.305176
466479, 0.389282, 0.821533, -0.438354, 1.098633, 0.305176, -0.305176
466499, 0.365112, 0.817383, -0.451050, 1.281738, 1.220703, -0.061035
466519, 0.364624, 0.817017, -0.455322, -0.122070, 2.807618, 1.770020
466539, 0.416138, 0.822021, -0.433960, -0.061035, 3.051759, 1.159668
466559, 0.406372, 0.825439, -0.429321, 0.854492, 0.488281, -0.549316
466579, 0.369385, 0.820068, -0.439575, 1.892090, 0.061035, -0.915528
466599, 0.362671, 0.817139, -0.460327, 0.976563, 3.417970, 1.220703
466619, 0.414795, 0.828613, -0.424683, 0.976563, 4.394531, 0.427246
466639, 0.416992, 0.844482, -0.398682, 4.394531, 3.784181, -1.525879
466659, 0.415039, 0.845947, -0.417847, 10.681152, 2.990724, -4.272461
466679, 0.396729, 0.849365, -0.438721, 13.122562, 4.394531, -5.554201
466699, 0.388184, 0.866455, -0.420410, 19.714355, 4.028320, -5.798342
466719, 0.219482, 0.847778, -0.476685, 24.536140, -0.183106, 8.239746
466739, 0.304199, 0.802856, -0.503174, 27.038582, 10.986328, 21.240234
466759, 0.459717, 0.687866, -0.569092, 17.700195, 17.272949, 3.845216
466779, 0.430908, 0.696655, -0.528931, 10.986328, 12.390141, -13.977055
466799, 0.359131, 0.682617, -0.558228, 1.220703, 13.671879, -19.653320
466819, 0.372681, 0.783081, -0.465698, -2.929688, 12.146000, -13.366703
466839, 0.446777, 0.896851, -0.391724, -6.103518, 9.643555, 6.164553
466859, 0.493530, 0.793945, -0.424927, -3.845216, 1.281738, 2.319336
466879, 0.426758, 0.807373, -0.443237, -3.845216, -4.028320, -0.915528
466899, 0.369629, 0.795898, -0.485107, -4.577637, -5.493164, -0.793457
466919, 0.372437, 0.805054, -0.477417, -6.774904, -3.417970, 2.136230
466939, 0.377197, 0.813477, -0.474976, -8.361816, -3.967286, 3.906251
466959, 0.387695, 0.817139, -0.447021, -7.568361, 0.976563, 4.943848
466979, 0.385132, 0.822266, -0.437134, -6.347658, 2.258301, 5.554201
466999, 0.396729, 0.817749, -0.443359, -4.577637, 6.469728, 6.652834
467019, 0.444946, 0.814941, -0.436768, -4.394531, 3.234864, 6.042482
467039, 0.445557, 0.811768, -0.433105, -2.502441, -2.746582, 2.685547
467059, 0.430786, 0.805054, -0.439575, -2.075195, -6.958010, 0.854492
467079, 0.413330, 0.808594, -0.444458, -1.831055, -6.408693, 0.244141
467099, 0.379272, 0.819092, -0.440796, -1.525879, -3.601075, 0.427246
467119, 0.396362, 0.812378, -0.441162, -0.549316, 2.197266, 1.892090
467139, 0.420776, 0.809937, -0.437256, 0.000000, 3.356935, 1.281738
467159, 0.438721, 0.806641, -0.438599, 0.183106, 0.305176, -0.244141
467179, 0.419312, 0.808350, -0.448486, -0.305176, -2.502441, -0.915528
467199, 0.409302, 0.812134, -0.441162, -0.427246, -2.868653, -0.915528
467219, 0.399170, 0.811768, -0.434937, 0.671387, -0.854492, -0.244141
467239, 0.406250, 0.806152, -0.449585, 0.488281, -1.831055, -0.122070
467259, 0.390381, 0.806641, -0.456543, -0.427246, 0.122070, 1.220703
467279, 0.409912, 0.807617, -0.445435, -0.976563, 1.281738, 1.525879
467299, 0.432251, 0.810303, -0.434448, -0.915528, 0.854492, 0.549316
467319, 0.424927, 0.813477, -0.424561, 0.488281, -0.122070, -0.732422
467339, 0.392090, 0.810181, -0.437866, 1.220703, -0.976563, -0.427246
467359, 0.396118, 0.803589, -0.458984, 0.122070, -0.122070, 1.220703
467379, 0.422852, 0.805420, -0.446777, -0.976563, 0.061035, 0.854492
467399, 0.412720, 0.809326, -0.442505, -1.159668, -0.610352, 0.427246
467419, 0.415527, 0.812866, -0.430664, -0.671387, -0.549316, -0.183106
467439, 0.402466, 0.811646, -0.437012, 0.061035, -1.037598, -0.122070
467459, 0.390503, 0.807251, -0.449707, -0.244141, 1.281738, 1.342773
467479, 0.409546, 0.808838, -0.443481, -0.732422, 2.380371, 2.014160
467499, 0.415527, 0.814941, -0.426025, -0.427246, 3.906251, 1.770020
467519, 0.429565, 0.816895, -0.413208, 1.403809, 3.540040, 0.976563
467539, 0.427856, 0.813110, -0.420410, 3.479005, 1.281738, 0.427246
467559, 0.385010, 0.806519, -0.462646, 2.685547, 0.549316, 1.586915
467579, 0.404663, 0.814697, -0.439819, 2.014160, 5.859377, 2.929688
467599, 0.433472, 0.807861, -0.408325, 4.455566, 14.587406, 1.159668
467619, 0.450317, 0.797119, -0.431885, 5.493164, 10.375977, 0.122070
467639, 0.452393, 0.795898, -0.457764, 3.601075, 4.516602, -1.098633
467659, 0.431152, 0.822266, -0.424683, 3.479005, 4.333496, -2.075195
467679, 0.418335, 0.823120, -0.424683, 5.615236, 8.544922, -2.441406
467699, 0.437134, 0.804688, -0.460205, 14.404301, -2.441406, -7.873537
467719, 0.266479, 0.762085, -0.509399, 4.272461, 4.333496, 0.549316
467739, 0.409912, 0.773560, -0.469971, 1.281738, 11.779789, 4.699707
467759, 0.470215, 0.790039, -0.430908, -3.723145, 14.587406, 6.286623
467779, 0.535767, 0.807007, -0.378296, -4.028320, 4.333496, 2.746582
467799, 0.434814, 0.789307, -0.462402, -2.746582, -11.047363, -1.159668
467819, 0.381714, 0.790527, -0.484009, -6.896975, -13.793949, 2.624512
467839, 0.378296, 0.811401, -0.446655, -9.033203, -7.324221, 5.859377
467859, 0.429688, 0.821289, -0.401245, -7.385256, -1.403809, 7.019045
467879, 0.468628, 0.815552, -0.387939, -3.234864, 1.647950, 5.187988
467899, 0.467041, 0.814697, -0.396240, 0.061035, 0.305176, 2.563477
467919, 0.471924, 0.799438, -0.421143, 0.732422, -2.563477, -0.061035
467939, 0.475708, 0.800171, -0.422119, 1.403809, -7.568361, -1.770020
467959, 0.431519, 0.794434, -0.450073, -0.061035, -14.404301, -1.892090
467979, 0.395142, 0.801636, -0.438232, -2.929688, -14.648441, 0.854492
467999, 0.423706, 0.810059, -0.414917, -2.258301, -14.587406, 2.929688
468019, 0.480469, 0.801514, -0.434570, -1.953125, -23.498543, 2.624512
468039, 0.507935, 0.771606, -0.509644, -7.385256, -47.912613, 2.075195
468059, 0.350342, 0.789917, -0.486206, -28.137215, -44.555679, 12.390141
468079, 0.396729, 0.804565, -0.377319, -32.470703, -43.884277, 24.353035
468099, 0.502686, 0.808350, -0.384033, -32.470703, -35.400391, 27.282722
468119, 0.492310, 0.819946, -0.384888, -27.282722, -35.095215, 20.202637
468139, 0.451782, 0.810181, -0.428955, -22.705086, -35.766602, 11.230473
468159, 0.424072, 0.770142, -0.464722, -31.860359, -35.278320, 18.371582
468179, 0.498291, 0.830078, -0.308350, -45.959488, -43.212891, 33.813477
468199, 0.485718, 0.860596, -0.367432, -33.020020, -44.616714, 19.775391
468219, 0.387939, 0.837402, -0.438599, -25.390633, -42.541504, 10.742188
468239, 0.344604, 0.835938, -0.444824, -20.751953, -42.297363, 5.310059
468259, 0.312988, 0.817871, -0.444702, -23.010262, -39.550781, 12.573246
468279, 0.356323, 0.817261, -0.390991, -29.052742, -28.259285, 24.169930
468299, 0.483154, 0.831787, -0.352661, -25.695808, -21.850586, 22.644051
468319, 0.530884, 0.834717, -0.334961, -21.789551, -30.944832, 15.014652
468339, 0.443970, 0.840820, -0.365601, -18.188477, -35.278320, 9.216309
468359, 0.376709, 0.831665, -0.429688, -12.817387, -32.043457, 2.258301
468379, 0.314819, 0.842773, -0.414917, -13.122562, -25.085457, 5.065918
468399, 0.315430, 0.841187, -0.425415, -10.253906, -14.343266, 6.225588
468419, 0.377197, 0.844116, -0.399048, -10.009766, -6.164553, 8.422852
468439, 0.392578, 0.852295, -0.399536, -3.784181, -1.770020, 1.647950
468459, 0.394409, 0.851318, -0.367188, 0.549316, 8.605957, -3.601075
468479, 0.428223, 0.864868, -0.304688, 7.324221, 23.254402, -7.812502
468499, 0.492310, 0.896240, -0.242310, 19.836426, 47.302261, -16.784668
468519, 0.584961, 0.924438, -0.252197, 35.278320, 59.997574, -30.273445
468539, 0.674438, 1.080688, -0.351563, 52.917496, 54.199234, -54.260269
468559, -0.137695, 0.741455, -0.528198, 118.896515, 14.526371, 16.540527
468579, 0.048218, 0.403687, -0.696777, 98.022491, 46.936050, 35.949707
468599, 0.266602, 0.439209, -0.594604, 75.500488, 92.834503, 19.653320
468619, 0.546509, 0.456543, -0.577759, 44.128418, 97.412140, 17.272949
468639, 0.662598, 0.638916, -0.374512, 21.240234, 86.791992, 14.770512
468659, 0.509277, 0.785156, -0.281250, 34.301758, 95.153839, 28.686531
468679, 0.492554, 0.774048, -0.382202, 41.564941, 105.407745, 51.330582
468699, 0.696655, 0.690186, -0.524170, 7.568361, 122.131378, 19.653320
468719, 0.628174, 0.869995, -0.561279, -13.183598, 69.335938, -19.714355
468739, 0.673584, 0.671997, -0.500244, -19.042969, 47.241226, 10.375977
468759, 0.575928, 0.776123, -0.252319, -18.493652, 24.475105, 14.404301
468779, 0.649780, 0.751587, -0.326294, -13.977055, 15.563969, 13.488773
468799, 0.635864, 0.735107, -0.357056, -13.305668, 12.329105, 11.962894
468819, 0.861694, 0.845581, -0.383179, -18.188477, -3.417970, 3.723145
468839, 0.884644, 0.833496, -0.375977, -36.132813, -56.091324, -31.616219
468859, 0.676270, 0.796143, -0.373169, -53.039566, -88.073730, -46.386734
468879, 0.571167, 0.797852, -0.377686, -67.749023, -89.294464, -54.565445
468899, 0.441040, 0.765015, -0.320435, -67.443848, -86.242676, -53.771988
468919, 0.543823, 0.766357, -0.312622, -67.504883, -80.200195, -55.542007
468939, 0.628296, 0.751343, -0.307739, -64.392090, -96.069366, -61.645523
468959, 0.467529, 0.771606, -0.274658, -55.114761, -91.308624, -61.828629
468979, 0.540161, 0.798828, -0.322266, -68.298340, -74.035645, -82.153320
468999, 0.447388, 0.797485, -0.284546, -71.350098, -62.072769, -92.651398
469019, 0.299805, 0.875000, -0.223267, -54.809586, -63.598648, -80.444336
469039, 0.219971, 0.876953, -0.199829, -59.936539, -56.213394, -84.594727
469059, 0.053467, 0.922485, -0.157349, -42.175293, -48.828140, -65.612793
469079, -0.037231, 0.958130, -0.164063, -30.578621, -28.991707, -46.997086
469099, 0.028809, 0.924683, -0.335327, -33.569336, 0.610352, -34.851074
469119, 0.155151, 0.967529, -0.192627, -4.882813, 17.333984, -1.159668
469139, 0.268799, 0.953003, -0.231567, -2.929688, 7.629396, -0.061035
469159, 0.265625, 0.951782, -0.234741, -4.821777, 2.868653, -4.089355
469179, 0.224854, 0.955078, -0.218140, 0.976563, -0.488281, -1.281738
469199, 0.249878, 0.956421, -0.232056, 2.502441, -0.915528, -2.929688
469219, 0.179688, 0.959717, -0.230225, 3.173829, 6.103518, -4.333496
