timestamp,ax,ay,az,gx,gy,gz
480800, 0.195313, 0.968018, -0.146362, 19.592285, 31.250008, -45.349136
480820, 0.049805, 0.972656, -0.180298, 18.310547, 45.959488, -36.743164
480840, 0.175049, 0.983887, -0.109741, 19.653320, 31.799324, -23.376472
480860, -0.018555, 0.927246, -0.391602, 10.314941, 18.310547, -3.906251
480880, 0.158691, 0.937866, -0.306763, -5.981447, 26.855476, 8.178711
480900, 0.330078, 0.976685, -0.111572, -8.117676, 25.451668, 2.319336
480920, 0.312378, 0.988525, -0.063721, -1.098633, 16.723633, -6.530764
480940, 0.189087, 0.988647, -0.104126, 5.126953, 3.356935, -6.408693
480960, 0.104126, 0.977417, -0.163818, 6.408693, -4.028320, 2.685547
480980, 0.181396, 0.974609, -0.151978, 6.713869, -6.469728, 9.338379
481000, 0.282349, 0.960571, -0.182617, 7.141115, -8.422852, 7.019045
481020, 0.265259, 0.961548, -0.195190, 5.004883, -5.737307, 0.183106
481040, 0.220459, 0.967773, -0.174316, 4.394531, -3.173829, -2.258301
481060, 0.210693, 0.966187, -0.183472, 4.333496, -2.563477, -2.624512
481080, 0.193481, 0.965820, -0.188965, 3.784181, -1.831055, -1.037598
481100, 0.212524, 0.969238, -0.182251, 2.624512, -2.075195, -0.915528
481120, 0.213013, 0.969727, -0.171143, 3.417970, -4.638672, -0.488281
481140, 0.199219, 0.969238, -0.180908, 3.540040, -6.958010, 0.244141
481160, 0.132080, 0.965820, -0.205566, 3.112794, -6.835939, 4.211426
481180, 0.174927, 0.965820, -0.201538, 0.427246, -1.037598, 8.605957
481200, 0.284668, 0.976807, -0.123413, 3.173829, 0.732422, 6.774904
481220, 0.280396, 0.975464, -0.131958, 8.178711, -3.723145, -0.427246
481240, 0.157471, 0.952271, -0.253540, 6.469728, -2.868653, 1.831055
481260, 0.183716, 0.953247, -0.239258, 1.770020, -0.366211, 5.676271
481280, 0.268677, 0.958374, -0.196533, -0.244141, 0.244141, 5.065918
481300, 0.311279, 0.967651, -0.155884, 1.159668, -4.089355, -1.159668
481320, 0.186523, 0.975464, -0.156128, 5.065918, -9.948730, -2.380371
481340, 0.114624, 0.964355, -0.229370, 4.760742, -6.164553, 4.150391
481360, 0.156860, 0.955688, -0.230957, 2.075195, -1.220703, 10.498047
481380, 0.258057, 0.959839, -0.187622, 0.488281, 2.868653, 10.009766
481400, 0.309326, 0.960083, -0.177002, 2.929688, 2.868653, 4.760742
481420, 0.265381, 0.960693, -0.185181, 3.967286, -1.892090, 0.183106
481440, 0.184814, 0.957153, -0.229736, 0.427246, -0.915528, 3.173829
481460, 0.233276, 0.960938, -0.190674, 0.305176, -0.549316, 5.126953
481480, 0.238403, 0.970703, -0.176147, 2.197266, 0.244141, 4.333496
481500, 0.250366, 0.959961, -0.178223, 4.150391, 0.671387, 3.784181
481520, 0.269653, 0.971436, -0.194214, 4.211426, -2.502441, 0.610352
481560, 0.040283, 1.170044, -0.290161, -7.873537, 2.502441, 23.010262
481580, -0.391235, 1.612915, 0.081421, 31.066902, -14.526371, 75.805664
481600, -0.176758, 0.821655, -0.564453, 72.753906, 39.550781, 115.417511
481620, 0.241699, 0.739624, -0.404297, 38.757324, 91.552765, 82.519531
481640, 0.279785, 0.879639, -0.187866, 73.791504, 102.722198, 56.823746
481660, 0.292480, 0.733154, -0.460083, 93.994171, 93.994171, 39.184570
481680, 0.208130, 0.715210, -0.542603, 102.111847, 95.092804, 28.137215
481700, 0.248779, 0.798096, -0.453857, 110.168488, 111.755402, 34.240723
481720, 0.410522, 0.941040, -0.302368, 110.046417, 140.319824, 46.142593
481740, 0.611328, 0.916870, -0.146973, 120.422394, 169.372559, 38.757324
481760, 0.664795, 0.671753, -0.221313, 130.432129, 182.067932, 22.277840
481780, 0.690674, 0.454102, -0.224487, 119.873077, 185.302795, 2.075195
481800, 0.717407, 0.505615, -0.144897, 98.632843, 174.743652, -3.479005
481820, 0.936890, 0.639893, -0.057617, 48.950211, 125.732452, -23.193367
481840, 0.955566, 0.619263, -0.016602, 20.812988, 48.156754, -56.884781
481860, 0.669434, 0.694702, 0.020752, 8.911133, 10.803223, -69.213867
481880, 0.537476, 0.740723, -0.101685, -1.220703, -10.131836, -54.016129
481900, 0.502319, 1.509033, -0.093750, -38.146973, -3.845216, -13.793949
481920, 0.926147, 0.996582, -0.233521, -7.751467, -21.911621, 13.671879
481940, 0.536743, 0.798340, -0.144043, -19.104004, -38.879395, -15.747074
481960, 0.321167, 0.809448, -0.127808, -2.868653, -22.399910, -4.943848
481980, 0.441528, 0.825073, -0.272461, 2.868653, -9.216309, 7.019045
482000, 0.657959, 0.817261, -0.260376, 4.089355, 3.295899, 1.403809
482020, 0.600098, 0.789917, -0.231445, 6.835939, -6.225588, -3.112794
482040, 0.555298, 0.824951, -0.237793, 11.596684, -11.840824, -2.014160
482060, 0.599487, 0.779907, -0.295654, 12.268070, -19.042969, -4.272461
482080, 0.483154, 0.791260, -0.338501, 10.864258, -16.601563, -3.479005
482100, 0.440308, 0.780029, -0.379395, 6.530764, -5.615236, 0.732422
482120, 0.458740, 0.786987, -0.352173, 2.197266, 6.103518, 8.117676
482140, 0.590210, 0.788574, -0.298950, 0.854492, 9.033203, 7.934572
482160, 0.589722, 0.789185, -0.279297, 2.807618, 6.103518, 5.432129
482180, 0.616821, 0.782715, -0.291016, 4.211426, 2.197266, -14.587406
482200, 0.558594, 0.787476, -0.308228, 3.784181, 2.685547, -1.831055
482220, 0.547852, 0.784424, -0.284180, 4.455566, 4.089355, -3.356935
482240, 0.558716, 0.796021, -0.277100, 7.263186, 6.530764, -2.319336
482260, 0.529175, 0.774780, -0.299683, 8.972168, 5.859377, -2.441406
482280, 0.549316, 0.757202, -0.337891, 7.751467, 6.347658, 0.915528
482300, 0.491089, 0.774658, -0.349976, 4.516602, 8.178711, 5.310059
482320, 0.528809, 0.780762, -0.302734, 3.967286, 16.601563, 9.704590
482340, 0.563843, 0.772949, -0.311768, 3.662110, 16.357422, 9.155273
482360, 0.601196, 0.774902, -0.313110, 1.586915, 14.404301, 5.798342
482380, 0.569702, 0.767822, -0.254639, 3.479005, 7.629396, 4.577637
482400, 0.523438, 0.771851, -0.317749, 5.371094, 15.625004, 7.324221
482420, 0.567871, 0.762451, -0.355713, 0.122070, 17.028809, 7.873537
482440, 0.567017, 0.757202, -0.291260, -2.380371, 19.287109, 8.422852
482460, 0.633301, 0.758179, -0.260986, -1.098633, 15.808109, 8.544922
482480, 0.599121, 0.795166, -0.282593, -0.183106, 11.352543, 4.577637
482500, 0.586914, 0.760376, -0.295532, -2.746582, 10.070801, 2.197266
482520, 0.619019, 0.772095, -0.257935, -2.319336, 8.300781, 2.807618
482540, 0.604370, 0.762207, -0.254150, -1.525879, 5.554201, 0.366211
482560, 0.639771, 0.762939, -0.264404, -0.671387, 3.479005, -2.258301
482580, 0.572510, 0.760132, -0.274292, -1.098633, -1.281738, -1.892090
482600, 0.569702, 0.767822, -0.279053, -1.953125, -0.610352, -0.488281
482620, 0.594482, 0.766357, -0.261230, -1.770020, 1.708985, 1.098633
482640, 0.604980, 0.767212, -0.262329, -1.586915, -2.319336, 0.122070
482660, 0.583008, 0.761719, -0.281860, -2.136230, -4.211426, 1.220703
482680, 0.555054, 0.764404, -0.281982, -4.089355, -6.042482, 2.624512
482700, 0.578003, 0.759155, -0.287598, -5.432129, -1.892090, 5.249023
482720, 0.608643, 0.766479, -0.267334, -6.652834, -0.976563, 4.821777
482740, 0.662231, 0.826294, -0.280029, -7.629396, -8.117676, 2.746582
482760, 0.750488, 0.835571, -0.276001, -18.493652, -40.771484, -37.719727
482780, 0.798706, 0.858032, -0.268921, -26.245125, -52.795425, -63.537613
482800, 0.854980, 0.856201, -0.282959, -33.508301, -63.537613, -96.496613
482820, 0.631958, 0.761475, -0.239258, -42.846680, -88.378906, -126.342804
482840, 0.506592, 0.773560, -0.318481, -53.405777, -92.529327, -137.084961
482860, 0.530151, 0.730713, -0.515137, -78.491211, -88.378906, -153.442383
482880, 0.109619, 0.677979, -0.271118, -112.548859, -113.159210, -157.531738
482900, -0.097534, 0.837280, -0.140869, -88.439941, -60.668961, -101.318390
482920, 0.248169, 0.865845, -0.281616, -87.036133, -43.395996, -86.608887
482940, 0.075684, 0.928467, -0.025879, -71.838379, -22.705086, -71.166992
482960, 0.217285, 0.974976, -0.054810, -52.551285, -6.347658, -59.021011
482980, -0.031128, 1.102661, 0.260742, -19.409180, -1.953125, -35.644531
483000, 0.153320, 1.075317, 0.160156, 15.563969, -3.845216, -17.456055
483020, 0.074829, 1.075562, 0.079956, 39.978027, -9.521484, -9.826660
483040, -0.080322, 1.062134, -0.046021, 53.405777, -10.803223, 4.028320
483060, -0.089844, 1.007690, -0.109619, 59.082047, 3.234864, 19.287109
483080, -0.428467, 1.078735, 0.140991, 112.915070, 32.470703, 74.829102
483100, 0.034180, 0.904907, -0.424072, 158.142090, 67.077637, 123.413116
483120, 0.331909, 0.673950, -0.540771, 133.850098, 67.138672, 126.892120
483140, 0.474854, 0.545166, -0.578613, 90.332062, 85.388184, 83.557129
483160, 0.446533, 0.680054, -0.563965, 53.405777, 77.270508, 40.649414
483180, 0.185669, 0.895508, -0.402832, 46.569839, 77.148438, 45.959488
483200, 0.221924, 0.845825, -0.333618, 42.724609, 94.055206, 77.026367
483220, 0.470459, 0.658081, -0.266479, 33.691406, 125.488312, 81.909180
483240, 0.720703, 0.662842, -0.354004, 10.314941, 146.789551, 43.029785
483260, 0.854370, 1.240601, -0.263306, -18.310547, 103.759796, 8.911133
483280, 0.720825, 0.911743, -0.099487, -4.272461, 53.100601, 3.295899
483300, 0.691528, 0.841309, -0.230347, 1.098633, 7.385256, -3.051759
483320, 0.533691, 0.800903, -0.361206, -8.544922, -25.024422, -2.929688
483340, 0.507080, 0.805176, -0.385864, -19.348145, -56.884781, 0.976563
483360, 0.470337, 0.818359, -0.332031, -25.268562, -58.166519, 4.943848
483380, 0.592285, 0.833862, -0.229248, -23.437508, -61.950699, 3.784181
483400, 0.586914, 0.830200, -0.250977, -20.935059, -73.242188, -3.540040
483420, 0.538208, 0.807007, -0.222290, -40.832520, -70.068359, 2.136230
483440, 0.538208, 0.810303, -0.144043, -58.349625, -74.401855, 14.282230
483460, 0.476685, 0.838989, -0.178345, -61.889664, -67.993164, 18.737793
483480, 0.503418, 0.860107, -0.257935, -65.734863, -49.987808, 19.592285
483500, 0.476929, 0.899048, -0.201172, -56.640640, -59.326187, 8.178711
483520, 0.534790, 0.826538, -0.409058, -36.437988, -79.101563, -8.850098
483540, 0.417236, 0.816528, -0.373779, -59.570328, -91.247589, -2.807618
483560, 0.406616, 0.818970, -0.231689, -80.322266, -91.796906, 7.751467
483580, 0.423584, 0.862427, -0.150269, -80.078125, -75.012207, 13.610844
483600, 0.429810, 0.916260, -0.085327, -60.668961, -57.128922, 8.972168
483620, 0.479126, 0.956421, -0.127686, -26.428230, -59.936539, -7.873537
483640, 0.282104, 0.902344, -0.332275, -12.512211, -55.542007, -11.840824
483660, 0.173340, 0.879028, -0.405762, -18.981934, -38.146973, 0.427246
483680, 0.228760, 0.919922, -0.318848, -17.028809, -15.380863, 7.080080
483700, 0.307373, 0.904541, -0.166626, -8.361816, 19.836426, 7.263186
483720, 0.638062, 0.911743, -0.033203, 2.990724, 21.362305, -2.258301
483740, 0.621338, 0.905640, -0.066040, 16.723633, -1.647950, -17.883301
483760, 0.455933, 0.875732, -0.242432, 20.324707, -11.535648, -25.939949
483780, 0.316406, 0.876709, -0.317383, 15.258793, 0.671387, -24.108894
483800, 0.379395, 0.896729, -0.235474, 12.390141, 15.747074, -22.521980
483820, 0.486206, 0.910522, -0.140259, 18.432617, 25.329597, -28.381355
483840, 0.470093, 0.909912, -0.140381, 27.587898, 24.841316, -36.804199
483860, 0.518066, 0.903809, -0.168335, 34.057617, 15.258793, -43.884277
