timestamp,ax,ay,az,gx,gy,gz
397095, 0.081543, 0.899292, -0.488159, -18.310547, 13.244633, -26.733406
397115, -0.105591, 0.958130, -0.291016, -17.089844, 1.831055, -33.447266
397135, -0.395752, 0.957397, -0.248901, -6.225588, -8.239746, -17.272949
397155, -0.369385, 0.973877, -0.225220, 8.483887, 1.220703, 7.080080
397175, -0.089722, 0.938965, -0.334229, 18.005371, 9.155273, 14.526371
397195, 0.106201, 0.906860, -0.465088, 16.723633, 3.601075, 3.479005
397215, 0.014282, 0.898682, -0.492798, 9.033203, -9.521484, -8.056641
397235, -0.119141, 0.905884, -0.465820, 3.173829, -16.479492, -9.826660
397255, -0.210571, 0.923340, -0.397949, 1.525879, -14.343266, -4.882813
397275, -0.192627, 0.933350, -0.361450, 4.821777, -6.469728, 0.854492
397295, -0.084595, 0.912231, -0.433716, 7.019045, 4.089355, 2.441406
397315, -0.059326, 0.909546, -0.449219, 4.150391, 1.525879, -1.464844
397335, -0.130737, 0.914917, -0.424072, 1.770020, -0.488281, -2.197266
397355, -0.166260, 0.925537, -0.387573, 3.295899, -0.549316, 1.403809
397375, -0.163208, 0.921631, -0.396240, 5.798342, 0.122070, 5.859377
397395, -0.075562, 0.910400, -0.442627, 5.981447, 2.075195, 6.225588
397415, -0.012207, 0.900513, -0.481567, 1.525879, 0.244141, -0.061035
397435, -0.050659, 0.911377, -0.435791, -2.014160, -3.173829, -5.981447
397455, -0.143311, 0.919556, -0.402710, -1.220703, -6.774904, -6.042482
397475, -0.202026, 0.924194, -0.388794, 0.854492, -1.953125, 2.197266
397495, -0.078369, 0.910400, -0.440308, 2.380371, -0.915528, 1.708985
397515, -0.084229, 0.915771, -0.424194, 0.732422, -2.807618, -1.220703
397535, -0.116821, 0.916016, -0.419312, 0.915528, -1.464844, -2.136230
397555, -0.119629, 0.915405, -0.416626, 1.037598, -0.854492, -2.136230
397575, -0.145264, 0.916260, -0.420044, 1.586915, -1.281738, -0.732422
397595, -0.130615, 0.914551, -0.423706, 1.403809, 0.244141, 1.464844
397615, -0.092529, 0.913208, -0.425659, 1.098633, 0.183106, 0.793457
397635, -0.091675, 0.912354, -0.432495, 0.488281, -1.770020, -1.220703
397655, -0.144775, 0.916992, -0.414795, 0.305176, -2.136230, -0.671387
397675, -0.111694, 0.915283, -0.421265, 1.342773, 1.159668, 1.525879
397695, -0.084595, 0.913696, -0.425415, 0.915528, 0.305176, -0.305176
397715, -0.112915, 0.912231, -0.429077, 0.671387, -0.976563, -1.464844
397735, -0.131226, 0.914429, -0.421021, 0.366211, -1.037598, -0.671387
397755, -0.129028, 0.917603, -0.413330, 1.159668, 0.610352, 0.793457
397775, -0.098633, 0.912964, -0.427124, 1.159668, 0.000000, 0.244141
397795, -0.100952, 0.911255, -0.433472, 0.549316, -0.427246, -1.037598
397815, -0.110474, 0.912964, -0.428833, -0.366211, -0.244141, -1.708985
397835, -0.127197, 0.916016, -0.416016, 0.183106, -0.427246, -1.403809
397855, -0.129272, 0.916382, -0.416138, 0.793457, -0.366211, 0.122070
397875, -0.121094, 0.915161, -0.418701, 0.976563, -0.427246, 0.549316
397895, -0.113403, 0.912109, -0.430786, 1.342773, 0.183106, 0.793457
397915, -0.091797, 0.912231, -0.431641, -0.061035, -0.854492, -0.366211
397935, -0.112915, 0.913452, -0.427124, 0.183106, -0.915528, -1.708985
397955, -0.144653, 0.919678, -0.404419, 0.488281, -0.915528, -0.610352
397975, -0.126709, 0.914063, -0.425659, 1.403809, 0.000000, 1.403809
397995, -0.091553, 0.911743, -0.425659, 0.915528, -0.122070, 0.244141
398015, -0.109741, 0.912476, -0.429932, 0.732422, -0.427246, -1.159668
398035, -0.140869, 0.914307, -0.421509, 0.366211, -0.305176, -0.366211
398055, -0.101196, 0.912964, -0.428589, 0.183106, 0.854492, 1.037598
398075, -0.091553, 0.913086, -0.426514, 0.488281, -0.183106, -0.366211
398095, -0.108154, 0.909546, -0.425293, -0.427246, -1.708985, -1.708985
398115, -0.142944, 0.925659, -0.418091, 0.244141, -1.647950, -0.183106
398135, -0.121704, 0.908936, -0.406128, 0.976563, -0.610352, 0.976563
398155, -0.099487, 0.916260, -0.431519, 1.708985, -1.098633, 0.305176
398175, -0.113159, 0.909302, -0.439209, 0.244141, -1.770020, -0.610352
398195, -0.126465, 0.915527, -0.416260, 0.244141, -1.098633, -0.061035
398215, -0.119873, 0.915527, -0.413208, 1.037598, -0.183106, 0.122070
398235, -0.121460, 0.915161, -0.452026, 1.586915, 0.732422, 0.488281
398255, -0.094238, 0.907227, -0.445313, 0.000000, -0.488281, -0.732422
398275, -0.127930, 0.917358, -0.412231, -0.610352, -1.953125, -0.976563
398295, -0.138062, 0.918335, -0.402100, 1.403809, -0.732422, 0.610352
398315, -0.120605, 0.915771, -0.415649, 3.234864, -0.183106, 1.586915
398335, -0.097046, 0.910034, -0.439331, 2.075195, 0.183106, 0.610352
398355, -0.095215, 0.909424, -0.444214, 1.342773, 0.305176, -0.976563
398375, -0.117920, 0.912598, -0.425171, 0.061035, -0.793457, -1.953125
398395, -0.164551, 0.923584, -0.391724, 2.441406, -1.098633, 0.976563
398415, -0.083496, 0.930786, -0.399780, 4.577637, 3.173829, 0.366211
398435, -0.063965, 0.978027, -0.398438, 12.939457, 17.211914, -10.681152
398455, -0.079102, 0.994385, -0.452515, 15.930180, 27.282722, -15.136723
398475, -0.001343, 1.139160, -0.202393, 53.955093, 25.146492, -14.160160
398495, -0.266113, 0.865967, -0.417358, 90.454132, 39.978027, -21.118164
398515, -0.194214, 0.781250, -0.511353, 94.970734, 68.725586, -17.333984
398535, -0.095093, 0.770996, -0.578857, 85.937500, 81.237793, -11.596684
398555, -0.033325, 0.674072, -0.745605, 52.612320, 54.626480, -19.348145
398575, -0.185303, 0.632935, -0.649048, 26.245125, 50.109879, -18.859863
398595, -0.208862, 0.904785, -0.498657, 35.827637, 67.749023, -6.958010
398615, -0.078003, 0.818604, -0.599121, 71.655273, 98.510773, 14.221195
398635, -0.053589, 0.565063, -0.718018, 57.312027, 114.807159, 17.028809
398655, -0.096558, 0.590210, -0.706421, 33.569336, 123.901398, 12.207035
398675, -0.096313, 0.660522, -0.732788, 10.437012, 123.107941, 8.361816
398695, 0.031860, 0.736084, -0.717163, -8.666992, 106.140167, 13.427738
398715, 0.154907, 0.700928, -0.683228, -23.986824, 82.214355, 23.742683
398735, 0.235840, 0.849365, -0.640503, -34.179688, 78.552246, 26.062019
398755, 0.495361, 1.173462, -0.593994, -12.023930, 22.033691, 15.075687
398775, 0.310059, 0.827515, -0.508911, -10.314941, -2.685547, 1.403809
398795, 0.132690, 0.820190, -0.598389, -0.427246, 0.732422, -4.821777
398815, 0.059326, 0.787598, -0.649780, 1.953125, 7.019045, 1.831055
398835, 0.063843, 0.852295, -0.735962, -12.512211, -5.310059, 15.808109
398855, 0.274780, 0.846313, -0.664917, -33.813477, -40.710449, 18.859863
398875, 0.317139, 0.889526, -0.634521, -54.870621, -77.880859, 15.258793
398895, 0.277710, 0.826782, -0.687134, -71.594238, -101.806671, 6.347658
398915, 0.332764, 0.766724, -0.696289, -93.627960, -106.994659, -10.925293
398935, 0.238892, 0.771362, -0.710083, -111.694366, -137.634277, -17.150879
398955, 0.089966, 0.754639, -0.687866, -137.634277, -175.415039, -3.967286
398975, -0.057129, 0.788330, -0.449219, -146.057129, -193.542542, 10.620117
398995, -0.226318, 0.901123, -0.166016, -103.332550, -123.718292, 17.517090
399015, -0.134644, 0.923950, -0.288818, -75.012207, -65.185547, 17.578125
399035, 0.014893, 0.956543, -0.218506, -63.049332, -38.635254, 13.671879
399055, -0.020020, 1.000732, -0.122925, -29.113777, -25.878914, 5.981447
399075, -0.007446, 1.033447, -0.033325, 2.624512, -8.605957, 0.244141
399095, -0.019287, 0.986938, -0.253174, 19.714355, 1.464844, -4.943848
399115, 0.015747, 1.000366, -0.353027, 17.333984, 21.911621, -10.498047
399135, 0.143066, 1.090576, -0.290894, 20.202637, 45.776382, -27.282722
399155, 0.173096, 1.444092, 0.110107, 70.190430, 38.024902, -69.335938
399175, -0.310059, 0.880981, -0.038696, 157.409668, 27.038582, -83.190918
399195, -0.400635, 0.417603, -0.980347, 78.918457, 68.603516, -41.992188
399215, -0.255981, 0.763184, -0.523193, 30.761726, 66.406250, -41.442871
399235, -0.296997, 0.805420, -0.332153, 43.029785, 87.524414, -25.146492
399255, -0.035767, 0.818604, -0.390869, 68.786621, 119.751007, -6.286623
399275, 0.132324, 0.770508, -0.621948, 68.420410, 133.911133, -10.559082
399295, 0.144531, 0.806763, -0.816284, 15.808109, 114.379913, -13.183598
399315, 0.047974, 0.763916, -0.610474, -13.488773, 70.678711, -15.747074
399335, -0.089111, 0.721680, -0.621338, -30.578621, 37.963867, 0.366211
399355, 0.051514, 1.367920, -0.301270, -8.911133, 57.556168, 28.015144
399375, 0.269775, 0.893433, -0.550781, -6.713869, 14.648441, 13.244633
399395, 0.146362, 0.899780, -0.552979, -0.244141, 5.310059, 2.563477
399415, 0.065430, 0.869507, -0.562134, -1.281738, -9.765625, 0.183106
399435, -0.008301, 0.857666, -0.582153, -5.676271, -31.066902, 7.019045
399455, 0.014160, 0.869629, -0.510132, -4.516602, -37.963867, 13.427738
399475, 0.121826, 0.858276, -0.548218, -5.310059, -46.081558, 10.375977
399495, 0.061401, 0.862427, -0.538574, -5.920412, -40.283203, 3.112794
399515, 0.034180, 0.872070, -0.546021, -8.666992, -27.954109, 8.239746
399535, 0.063110, 0.872192, -0.514404, -9.277344, -39.672852, 19.653320
399555, 0.035156, 0.886841, -0.467285, -4.455566, -38.696289, 39.611816
399575, 0.139771, 0.850952, -0.577881, -5.798342, -57.006851, 45.654312
399595, 0.023193, 0.860596, -0.563477, -9.033203, -50.720230, 32.348633
399615, 0.018311, 0.874634, -0.512573, -12.390141, -58.410660, 32.653809
399635, -0.011475, 0.875244, -0.512939, -11.535648, -70.190430, 55.114761
399655, 0.036621, 0.870483, -0.461548, -5.249023, -71.716309, 81.848145
399675, 0.216553, 0.875122, -0.515503, -5.249023, -72.692871, 71.228027
399695, 0.003418, 0.877075, -0.543091, -8.178711, -53.161636, 28.198250
399715, -0.106689, 0.899902, -0.473877, -10.559082, -41.137695, 15.808109
399735, -0.099976, 0.895386, -0.454712, -7.568361, -37.048340, 20.690918
399755, 0.098511, 0.884644, -0.479004, 1.525879, -30.517586, 43.945313
399775, 0.092651, 0.882202, -0.535156, -2.685547, -24.292000, 17.944336
399795, -0.042725, 0.891968, -0.500000, -5.432129, -5.432129, -0.610352
399815, 0.166992, 0.878784, -0.506958, -5.676271, 7.995607, -5.859377
399835, 0.077881, 0.889038, -0.468628, -5.126953, -11.230473, -9.826660
399855, -0.087158, 0.893311, -0.471802, -3.601075, -18.310547, -0.244141
399875, -0.076904, 0.892578, -0.475830, -0.183106, -1.159668, 9.765625
399895, 0.155396, 0.881836, -0.496338, -0.366211, 12.084965, 7.446291
399915, 0.241577, 0.870728, -0.521729, -1.831055, 9.216309, -6.286623
399935, 0.218628, 0.870972, -0.529297, -4.333496, 4.943848, -16.967773
399955, -0.121216, 0.901978, -0.448608, -5.065918, -16.906738, -15.441898
399975, -0.189819, 0.913208, -0.398438, 1.220703, -2.197266, 1.708985
