timestamp,ax,ay,az,gx,gy,gz
894857, 0.452637, 0.719360, -0.612427, 10.070801, -4.028320, -1.831055
894877, 0.439209, 0.717041, -0.599243, 3.906251, 1.647950, -4.211426
894897, 0.436890, 0.725342, -0.575195, 1.098633, 2.502441, -5.432129
894917, 0.463013, 0.734741, -0.539673, 0.976563, -2.197266, -7.080080
894937, 0.451660, 0.743896, -0.504395, 3.906251, -5.859377, -9.460449
894957, 0.430664, 0.741333, -0.517212, 8.117676, -5.615236, -10.864258
894977, 0.412598, 0.730225, -0.573364, 8.666992, -11.413578, -11.108402
894997, 0.325684, 0.726563, -0.603271, 6.042482, -10.864258, -7.080080
895017, 0.321167, 0.728882, -0.604492, 3.295899, -1.892090, -1.708985
895037, 0.383911, 0.728394, -0.584839, 0.793457, 2.319336, 1.708985
895057, 0.457275, 0.737671, -0.538452, 2.990724, -1.159668, -0.732422
895077, 0.411499, 0.732788, -0.561646, 4.577637, -3.234864, -2.868653
895097, 0.381348, 0.732544, -0.576294, 4.211426, -3.051759, -2.075195
895117, 0.397217, 0.725342, -0.589233, 3.051759, -1.403809, -0.610352
895137, 0.410522, 0.729126, -0.579956, 2.197266, -2.197266, -1.403809
895157, 0.393066, 0.727661, -0.582642, 1.525879, -0.854492, -1.159668
895177, 0.401489, 0.725830, -0.586670, 0.366211, -0.122070, -1.098633
895197, 0.392090, 0.729492, -0.579102, -0.305176, 0.427246, -0.793457
895217, 0.395142, 0.733887, -0.564453, -0.183106, 0.488281, 0.000000
895237, 0.416138, 0.732788, -0.564575, 0.854492, 0.000000, -0.976563
895257, 0.408813, 0.732422, -0.564453, 1.831055, -0.183106, -1.708985
895277, 0.417236, 0.730469, -0.570679, 2.075195, -1.525879, -2.441406
895297, 0.397827, 0.728271, -0.582031, 1.770020, -1.831055, -3.112794
895317, 0.414795, 0.728760, -0.581299, 1.098633, -4.028320, -2.929688
895337, 0.391357, 0.732300, -0.571899, 1.098633, -4.028320, -3.601075
895357, 0.362549, 0.733032, -0.575928, 1.281738, -0.244141, -2.319336
895377, 0.381104, 0.730957, -0.582153, 0.976563, 0.915528, -0.305176
895397, 0.393921, 0.731567, -0.575928, 0.671387, 0.549316, 0.305176
895417, 0.398804, 0.729858, -0.579956, 0.488281, 0.488281, 0.488281
895437, 0.391235, 0.731323, -0.576416, -0.244141, 1.525879, 0.671387
895457, 0.414917, 0.732666, -0.565552, 0.000000, 0.427246, 0.732422
895477, 0.422119, 0.731934, -0.565186, 0.732422, -1.220703, -1.037598
895497, 0.399902, 0.731934, -0.572632, 1.342773, -1.220703, -1.892090
895517, 0.381592, 0.729614, -0.584351, 0.671387, -0.305176, -1.403809
895537, 0.389038, 0.730835, -0.578369, 0.122070, 0.366211, -0.183106
895557, 0.416870, 0.733398, -0.563354, 0.488281, -0.183106, -0.549316
895577, 0.414307, 0.734497, -0.561890, 1.403809, -1.586915, -2.014160
895597, 0.396606, 0.731567, -0.576050, 2.014160, -2.441406, -2.563477
895617, 0.383423, 0.729858, -0.585327, 0.610352, -3.234864, -1.220703
895637, 0.386597, 0.731323, -0.575439, -0.183106, -2.624512, -0.793457
895657, 0.390503, 0.734009, -0.563721, 0.549316, -0.305176, -0.488281
895677, 0.408325, 0.733643, -0.565796, 1.525879, -1.647950, -0.915528
895697, 0.416260, 0.729004, -0.583374, 1.525879, -3.906251, -2.197266
895717, 0.386963, 0.729736, -0.589111, 0.732422, -3.601075, -3.051759
895737, 0.365723, 0.732056, -0.586182, -0.061035, -0.671387, -1.831055
895757, 0.383789, 0.733521, -0.573730, -0.427246, 0.305176, -0.793457
895777, 0.407104, 0.735352, -0.565063, 0.549316, -0.610352, -1.098633
895797, 0.395996, 0.735596, -0.570435, 1.403809, -1.892090, -1.892090
895817, 0.389526, 0.730957, -0.587646, 0.366211, -3.784181, -2.136230
895837, 0.360474, 0.734741, -0.580444, -0.061035, -1.892090, -0.976563
895857, 0.385376, 0.734619, -0.573242, 0.366211, -0.366211, 0.244141
895877, 0.397827, 0.736572, -0.570068, 0.976563, -0.488281, -0.488281
895897, 0.384888, 0.732910, -0.581055, 1.159668, -0.793457, -0.671387
895917, 0.376343, 0.732056, -0.584717, 0.549316, -0.732422, 0.122070
895937, 0.388062, 0.734497, -0.574463, 0.671387, -0.244141, 0.366211
895957, 0.392822, 0.734009, -0.572632, 1.037598, 0.061035, 0.183106
895977, 0.400879, 0.732788, -0.574951, 1.586915, -0.610352, -0.244141
895997, 0.388672, 0.731812, -0.584229, 1.098633, -0.488281, -0.732422
896017, 0.379761, 0.730591, -0.590820, 0.244141, 0.488281, 0.061035
896037, 0.382080, 0.732178, -0.583618, -0.427246, 1.037598, 0.549316
896057, 0.399048, 0.734985, -0.567627, -0.122070, 0.854492, 0.610352
896077, 0.404175, 0.734375, -0.570190, 0.732422, -0.244141, -0.427246
896097, 0.388428, 0.733887, -0.573608, 1.342773, -1.220703, -0.610352
896117, 0.384277, 0.729980, -0.589722, 0.976563, -0.976563, -0.427246
896137, 0.381836, 0.730835, -0.588379, -0.061035, -0.061035, 0.000000
896157, 0.385620, 0.732178, -0.580444, -0.488281, 0.549316, 0.427246
896177, 0.392822, 0.735718, -0.567871, -0.061035, 0.183106, 0.549316
896197, 0.401733, 0.734619, -0.569946, 1.342773, -0.793457, -0.488281
896257, 0.390625, 0.733032, -0.578003, -0.427246, 0.305176, 0.915528
896277, 0.416260, 0.733521, -0.571411, 0.122070, -0.305176, -0.366211
896297, 0.396362, 0.731445, -0.578857, 0.122070, -0.915528, -1.708985
896317, 0.379150, 0.730347, -0.588257, -0.366211, -0.427246, -1.342773
896337, 0.378174, 0.733643, -0.578613, -1.037598, 0.122070, -0.366211
896357, 0.391602, 0.736328, -0.571289, -0.854492, -0.183106, 0.000000
896377, 0.395874, 0.736938, -0.593262, 0.610352, -1.037598, -0.183106
896397, 0.386841, 0.735229, -0.579346, 0.793457, -1.037598, -0.549316
896417, 0.378662, 0.732788, -0.583984, 0.488281, -0.305176, 0.305176
896437, 0.388672, 0.733154, -0.576294, 0.061035, 0.000000, 0.793457
896457, 0.405884, 0.733887, -0.569580, 0.427246, -0.854492, 0.244141
896477, 0.392700, 0.734619, -0.570435, 0.854492, -1.342773, -0.305176
896497, 0.385254, 0.732910, -0.583862, 0.793457, -1.220703, -0.122070
896517, 0.378540, 0.733887, -0.576538, 0.488281, -0.244141, 0.793457
896537, 0.404419, 0.734253, -0.574707, 0.366211, -0.488281, 0.549316
896557, 0.400146, 0.733276, -0.570923, 0.793457, -0.976563, -0.183106
896577, 0.377563, 0.731567, -0.586304, 0.671387, -1.342773, -0.305176
896597, 0.371948, 0.732056, -0.584106, -0.122070, 0.061035, 1.159668
896617, 0.395752, 0.734375, -0.570190, -0.061035, 0.549316, 1.586915
896637, 0.417480, 0.734131, -0.566528, 0.793457, -0.488281, 0.244141
896657, 0.400635, 0.732422, -0.575684, 1.342773, -1.403809, -1.037598
896677, 0.380737, 0.730347, -0.587280, 0.793457, -1.586915, -0.732422
896697, 0.373169, 0.731445, -0.585449, -0.122070, -0.427246, 0.488281
896717, 0.398315, 0.733643, -0.572632, -0.244141, -0.183106, 0.854492
896737, 0.401245, 0.734375, -0.568848, 0.366211, -0.915528, -0.061035
896757, 0.390503, 0.733887, -0.576782, 0.915528, -1.037598, 0.061035
896777, 0.380615, 0.732788, -0.576172, 0.976563, -0.732422, 0.671387
896797, 0.403320, 0.732788, -0.572021, 1.220703, -0.427246, 0.915528
896817, 0.404541, 0.732422, -0.571655, 1.770020, -1.281738, -0.305176
896837, 0.392090, 0.732910, -0.573730, 2.197266, -1.525879, -0.427246
896857, 0.391235, 0.728638, -0.589355, 1.770020, -1.831055, -0.366211
896877, 0.387085, 0.726929, -0.592529, 0.671387, -1.342773, -0.061035
896897, 0.394409, 0.728882, -0.585205, 0.122070, -0.793457, -0.183106
896917, 0.391846, 0.731812, -0.576294, -0.061035, -0.488281, -0.305176
896937, 0.384888, 0.732666, -0.573486, 0.305176, -0.122070, -0.122070
896957, 0.400879, 0.730835, -0.578491, 0.488281, -0.854492, -0.305176
896977, 0.384644, 0.729980, -0.580933, 0.549316, -0.793457, -0.183106
896997, 0.384033, 0.729858, -0.583008, 0.183106, -0.366211, 0.183106
897017, 0.395630, 0.730713, -0.577881, 0.244141, 0.122070, 0.610352
897037, 0.402832, 0.730347, -0.576904, 0.244141, -0.732422, -0.305176
897057, 0.386108, 0.731079, -0.577026, 0.427246, -0.854492, -0.183106
897077, 0.386108, 0.729858, -0.581787, 0.427246, -0.732422, 0.122070
897097, 0.381226, 0.730225, -0.579590, 0.183106, 0.122070, 0.976563
897117, 0.397217, 0.731445, -0.574707, 0.183106, 0.000000, 0.610352
897157, 0.415405, 0.728271, -0.579102, 0.488281, 0.854492, 0.671387
897177, 0.398682, 0.731934, -0.573730, 0.671387, -1.281738, 0.000000
897197, 0.385376, 0.731323, -0.574219, 0.976563, -0.976563, 0.549316
897217, 0.405273, 0.729614, -0.575562, 1.159668, -0.976563, 0.610352
897237, 0.416138, 0.727905, -0.581177, 1.037598, -1.708985, -0.793457
897257, 0.391113, 0.728638, -0.580811, 0.854492, -2.197266, -1.220703
897277, 0.387451, 0.730103, -0.580566, 0.549316, -1.708985, -0.671387
897297, 0.398682, 0.732544, -0.570435, 1.037598, -1.525879, -0.427246
897317, 0.405762, 0.728760, -0.578247, 1.464844, -1.953125, -1.403809
897337, 0.386230, 0.728516, -0.586548, 0.671387, -1.770020, -1.708985
897357, 0.384277, 0.730103, -0.584595, 0.305176, -1.220703, -1.220703
897377, 0.379883, 0.729370, -0.588867, -0.244141, -0.244141, -0.427246
897397, 0.390259, 0.729126, -0.582031, -0.793457, 0.671387, 0.000000
897417, 0.396973, 0.733521, -0.567261, -0.122070, 0.427246, -0.183106
897437, 0.390259, 0.733032, -0.569336, 0.854492, -0.488281, -0.122070
897457, 0.375732, 0.712158, -0.584351, 0.732422, -0.488281, 0.610352
897477, 0.382568, 0.757935, -0.587891, 0.366211, 0.732422, 3.051759
897497, 0.400757, 0.714722, -0.578735, -0.244141, 0.671387, 1.220703
897517, 0.457275, 0.739502, -0.567139, 1.953125, -2.258301, -0.183106
897537, 0.384155, 0.722412, -0.581299, 1.892090, -2.868653, -2.014160
897557, 0.389648, 0.732788, -0.590820, 1.403809, -2.319336, -0.671387
897577, 0.400024, 0.721436, -0.585449, 0.610352, -1.953125, -1.464844
897597, 0.395264, 0.733765, -0.586914, 0.488281, -1.831055, -1.586915
897617, 0.380127, 0.724976, -0.587891, -0.366211, -0.793457, -1.831055
897637, 0.377686, 0.732666, -0.586426, -0.671387, 0.366211, -0.671387
897657, 0.384766, 0.729858, -0.580078, -0.976563, 1.220703, -0.122070
897677, 0.392090, 0.733643, -0.572754, -0.549316, 0.915528, 0.305176
897697, 0.395508, 0.732178, -0.568604, 0.122070, 0.549316, 0.305176
897717, 0.393433, 0.730225, -0.576172, 0.854492, -0.732422, -0.183106
897737, 0.384766, 0.730225, -0.584473, 0.854492, -0.793457, 0.366211
897757, 0.378418, 0.729126, -0.586914, 0.183106, -0.427246, 1.281738
897777, 0.400146, 0.733398, -0.565674, 0.366211, -0.244141, 1.831055
897797, 0.416748, 0.734253, -0.560791, 1.892090, -2.014160, 0.610352
897817, 0.407349, 0.729858, -0.574463, 2.929688, -2.929688, -0.610352
897837, 0.395996, 0.724243, -0.596924, 2.380371, -2.868653, -1.342773
897857, 0.389038, 0.723145, -0.603638, 0.549316, -1.831055, -1.342773
897877, 0.388916, 0.728882, -0.590820, -0.732422, -0.915528, -1.281738
897897, 0.379395, 0.733521, -0.566772, 0.061035, -0.305176, -0.671387
897917, 0.392090, 0.731201, -0.576294, 1.098633, 0.061035, -0.427246
897937, 0.388672, 0.729858, -0.581055, 1.098633, 0.183106, -0.427246
897957, 0.392578, 0.728638, -0.588013, 0.915528, 0.671387, -0.305176
897977, 0.391724, 0.725098, -0.593750, 0.000000, 0.732422, -0.244141
897997, 0.383057, 0.729248, -0.582031, -0.732422, 1.159668, 0.000000
898017, 0.399902, 0.732422, -0.573975, -0.305176, 0.549316, 0.183106
898037, 0.398804, 0.729980, -0.574463, 0.244141, -0.488281, -0.305176
898057, 0.384399, 0.728516, -0.588135, 0.061035, -0.854492, 0.122070
898077, 0.387451, 0.727173, -0.593262, -1.037598, -0.732422, 0.915528
898097, 0.402466, 0.732178, -0.571045, -1.403809, -0.793457, 0.793457
898117, 0.394165, 0.733032, -0.565918, -0.549316, -1.098633, 0.183106
898137, 0.387695, 0.734741, -0.567017, 0.427246, -1.403809, 0.549316
898157, 0.401978, 0.733276, -0.566406, 1.586915, -1.708985, 0.854492
898177, 0.401367, 0.732422, -0.568115, 2.441406, -2.380371, 0.061035
898197, 0.392334, 0.729370, -0.581177, 2.685547, -2.319336, -0.244141
898217, 0.382324, 0.726440, -0.593384, 2.197266, -1.281738, 0.183106
898237, 0.386841, 0.727173, -0.585449, 1.464844, -0.061035, 0.671387
898257, 0.399292, 0.728149, -0.578735, 1.342773, 0.122070, 0.488281
898277, 0.397461, 0.728149, -0.579468, 1.953125, -0.122070, -0.427246
898297, 0.389648, 0.725220, -0.591553, 1.586915, -0.061035, -0.305176
898317, 0.386719, 0.722900, -0.597168, 0.549316, 0.244141, 0.061035
898337, 0.386597, 0.725952, -0.589600, -0.549316, 0.854492, 0.488281
898357, 0.400146, 0.724731, -0.589111, -1.037598, 1.708985, 0.610352
898377, 0.413940, 0.726440, -0.577271, -1.159668, 0.915528, -0.366211
898397, 0.416016, 0.727905, -0.575195, -0.854492, -0.854492, -1.892090
898417, 0.390869, 0.728516, -0.583252, -0.793457, -1.403809, -2.380371
898437, 0.374268, 0.729736, -0.582520, -1.220703, -1.037598, -1.281738
898457, 0.374023, 0.734619, -0.566284, -0.671387, -0.122070, 0.427246
898477, 0.403320, 0.733521, -0.559204, 1.647950, -1.098633, 0.366211
898497, 0.399536, 0.731812, -0.566895, 2.929688, -2.075195, 0.183106
898517, 0.387817, 0.727783, -0.587524, 3.051759, -2.502441, 0.244141
898537, 0.382690, 0.722046, -0.599731, 1.892090, -0.976563, 0.732422
898557, 0.383423, 0.722168, -0.590332, 0.854492, 0.488281, 1.342773
898577, 0.396851, 0.731689, -0.583618, 0.000000, 1.403809, 1.281738
898597, 0.422119, 0.731323, -0.583130, 0.976563, 1.586915, 0.488281
898617, 0.392700, 0.716797, -0.585205, -0.061035, 2.807618, -0.671387
898637, 0.421143, 0.728638, -0.589111, -0.427246, -1.220703, -0.976563
898657, 0.383667, 0.729248, -0.585815, -1.403809, -0.061035, -1.342773
898677, 0.403320, 0.727539, -0.578491, -1.403809, -0.122070, -1.281738
898697, 0.386841, 0.732910, -0.566650, -0.976563, 0.366211, -1.403809
898717, 0.390137, 0.732788, -0.566162, 0.122070, -0.183106, -0.671387
898737, 0.385376, 0.732300, -0.571411, 1.098633, 0.427246, 0.122070
898757, 0.395264, 0.729736, -0.578247, 1.281738, 0.427246, 0.427246
898777, 0.405884, 0.730591, -0.575806, 1.525879, -0.122070, 0.488281
898797, 0.395874, 0.726563, -0.583496, 1.342773, -0.549316, -0.244141
898817, 0.394653, 0.727539, -0.585693, 0.976563, -0.244141, 0.305176
898837, 0.392700, 0.726074, -0.585938, 0.366211, -0.061035, 0.366211
898857, 0.405518, 0.728760, -0.573486, 0.000000, -0.427246, 0.488281
898877, 0.402344, 0.729614, -0.572510, 0.732422, -0.793457, 0.000000
898897, 0.398315, 0.727417, -0.582153, 0.854492, -0.671387, -0.122070
898917, 0.400024, 0.725220, -0.588135, 0.183106, -0.671387, -0.244141
898937, 0.387817, 0.727051, -0.584106, -0.488281, -0.122070, 0.000000
898957, 0.401489, 0.728760, -0.576538, -0.610352, 0.427246, 0.305176
898977, 0.410278, 0.729492, -0.570557, -0.305176, -0.244141, -0.366211
898997, 0.400513, 0.728027, -0.579468, -0.061035, -0.488281, -0.976563
899017, 0.389771, 0.727783, -0.580322, -0.305176, -0.183106, -0.610352
899037, 0.407349, 0.730347, -0.573364, -0.549316, -0.061035, -0.427246
899057, 0.403564, 0.729492, -0.574463, -0.305176, -0.549316, -1.098633
899077, 0.394043, 0.731201, -0.575073, -0.061035, -0.610352, -1.037598
899097, 0.394775, 0.730103, -0.575195, -0.122070, -0.732422, -0.610352
899117, 0.394409, 0.730835, -0.575439, 0.061035, -0.976563, -0.427246
899137, 0.390747, 0.730225, -0.575928, 0.183106, -0.305176, 0.000000
899157, 0.392456, 0.730835, -0.576416, 0.000000, 0.061035, 0.427246
899177, 0.403809, 0.732666, -0.569214, 0.305176, 0.000000, 0.549316
899197, 0.411621, 0.730591, -0.568237, 0.915528, -0.671387, -0.183106
899217, 0.397095, 0.731201, -0.573364, 1.220703, -1.586915, -0.854492
899237, 0.393677, 0.726563, -0.590576, 0.549316, -0.549316, 0.183106
899257, 0.408936, 0.727295, -0.582031, -0.366211, -0.183106, -0.366211
899277, 0.402466, 0.730347, -0.576904, -0.610352, -0.183106, -1.159668
899297, 0.390259, 0.731201, -0.575806, -0.671387, -0.244141, -1.037598
899317, 0.386841, 0.731812, -0.571533, -0.549316, -0.366211, -0.061035
899337, 0.396973, 0.733521, -0.567871, 0.000000, -0.732422, 0.305176
899357, 0.396240, 0.731812, -0.571777, 0.427246, -0.854492, 0.549316
899377, 0.400146, 0.730957, -0.573608, 0.610352, -0.793457, 0.427246
899397, 0.391846, 0.729004, -0.582520, 0.305176, -0.793457, 0.549316
899417, 0.407104, 0.729614, -0.576050, -0.305176, -0.244141, 0.671387
899437, 0.401978, 0.732544, -0.568237, 0.061035, -1.037598, 0.000000
899457, 0.380615, 0.732422, -0.569946, 0.610352, -0.793457, 1.037598
899477, 0.396362, 0.730835, -0.574463, 0.549316, -0.244141, 1.831055
899497, 0.403198, 0.728394, -0.577881, 0.366211, -0.061035, 1.525879
899517, 0.404785, 0.728638, -0.575439, 0.305176, -0.488281, 1.342773
899537, 0.399780, 0.730103, -0.570679, 0.366211, -0.976563, 1.403809
899557, 0.395752, 0.729614, -0.574585, 0.549316, -0.671387, 1.403809
899577, 0.378296, 0.730469, -0.575317, 0.854492, 4.150391, 2.136230
899597, 0.414185, 0.727173, -0.579102, 0.183106, 3.601075, 2.380371
899617, 0.445801, 0.730103, -0.555664, 1.342773, -2.075195, 0.488281
899637, 0.412964, 0.727173, -0.572632, 2.136230, -3.540040, -1.464844
899657, 0.391724, 0.723877, -0.589600, 1.342773, -2.258301, -0.915528
899677, 0.401245, 0.725098, -0.588013, 0.000000, -1.098633, -0.854492
899697, 0.401733, 0.729004, -0.568359, -0.183106, -0.732422, -0.427246
899717, 0.416382, 0.731689, -0.558472, 0.915528, -1.403809, -1.037598
899737, 0.407959, 0.729004, -0.568970, 1.953125, -2.197266, -1.708985
899757, 0.389893, 0.727173, -0.581787, 1.708985, -2.624512, -1.220703
899777, 0.388550, 0.727173, -0.583008, 1.098633, -1.525879, -0.183106
899797, 0.403198, 0.729492, -0.572021, 1.098633, -0.305176, 0.366211
899817, 0.411987, 0.727539, -0.572266, 1.647950, -1.220703, -0.122070
899837, 0.393921, 0.726074, -0.582275, 1.525879, -1.525879, -0.366211
899857, 0.390381, 0.725464, -0.581177, 1.098633, -0.305176, 0.488281
899877, 0.407104, 0.728027, -0.573486, 1.098633, -0.427246, 0.671387
899897, 0.410645, 0.727661, -0.572876, 1.525879, -1.220703, 0.000000
899917, 0.401367, 0.727417, -0.573853, 1.953125, -1.708985, -0.122070
899937, 0.405884, 0.725586, -0.577148, 2.136230, -2.075195, -0.122070
899957, 0.398438, 0.725220, -0.581665, 2.136230, -2.807618, -0.122070
899977, 0.394043, 0.723999, -0.586792, 1.770020, -2.441406, 0.244141
899997, 0.399292, 0.725464, -0.579346, 1.708985, -2.197266, 0.854492
900017, 0.408203, 0.725342, -0.576538, 2.075195, -2.929688, 0.549316
900037, 0.407104, 0.723389, -0.582397, 2.075195, -3.173829, 0.000000
900057, 0.408936, 0.721802, -0.589478, 2.136230, -3.295899, -0.793457
900077, 0.369629, 0.719360, -0.603027, 0.976563, -2.380371, -0.122070
900097, 0.389404, 0.720947, -0.591797, -0.244141, -0.854492, 1.525879
900117, 0.408569, 0.722656, -0.582397, -0.305176, -0.671387, 1.037598
900137, 0.398071, 0.724976, -0.578613, 0.427246, 0.305176, 0.305176
900157, 0.396851, 0.723511, -0.580933, 0.854492, 1.098633, 0.732422
900177, 0.411011, 0.723022, -0.580078, 0.732422, -0.061035, 0.122070
900197, 0.401245, 0.721436, -0.586304, 0.671387, -0.915528, -0.366211
900217, 0.397461, 0.719482, -0.594360, 0.061035, -0.915528, -0.122070
900237, 0.387451, 0.720581, -0.588501, -0.549316, -0.061035, 0.427246
900257, 0.401611, 0.723267, -0.582397, -0.732422, 0.549316, 1.037598
900277, 0.409790, 0.724731, -0.573242, -0.183106, 0.061035, 0.427246
900297, 0.403442, 0.725098, -0.571167, 0.854492, -0.305176, 0.244141
900317, 0.397217, 0.721802, -0.585327, 1.098633, -0.427246, 0.244141
900337, 0.407227, 0.719971, -0.585449, 0.854492, -0.244141, 0.488281
900357, 0.408936, 0.721558, -0.583252, 0.671387, -0.610352, -0.183106
900377, 0.399170, 0.721313, -0.582397, 0.854492, -1.403809, -0.732422
900397, 0.397461, 0.720703, -0.588501, 0.610352, -0.732422, -0.061035
900417, 0.409424, 0.721436, -0.584106, 0.366211, -0.793457, -0.549316
900437, 0.406250, 0.721069, -0.585327, 0.244141, -0.793457, -1.037598
900457, 0.396362, 0.721436, -0.586548, 0.061035, -0.915528, -0.976563
900477, 0.397339, 0.723511, -0.579956, 0.061035, -0.732422, -0.488281
900497, 0.399414, 0.724365, -0.577026, 0.732422, -0.671387, -0.488281
900517, 0.399170, 0.722168, -0.586182, 0.732422, -0.549316, -0.305176
900537, 0.398804, 0.721558, -0.585938, 0.549316, -0.671387, -0.183106
900557, 0.398560, 0.722290, -0.588013, 0.122070, -0.549316, -0.122070
900577, 0.400513, 0.722412, -0.584717, -0.183106, -0.305176, 0.061035
900597, 0.408569, 0.724121, -0.575317, 0.122070, -0.488281, -0.244141
900617, 0.403076, 0.723877, -0.578857, 0.854492, -1.159668, -0.549316
900637, 0.392700, 0.721069, -0.591064, 0.488281, -0.915528, -0.183106
900657, 0.395264, 0.721436, -0.589478, -0.061035, -0.488281, 0.244141
900677, 0.403809, 0.721680, -0.584229, -0.305176, -0.549316, 0.488281
900697, 0.393188, 0.723633, -0.581543, -0.427246, -0.366211, 0.244141
900717, 0.404175, 0.721680, -0.585449, -0.305176, 0.366211, 0.732422
900737, 0.398682, 0.722656, -0.582886, -0.610352, 0.549316, 0.671387
900757, 0.404663, 0.723633, -0.580078, -0.610352, 0.244141, 0.610352
900777, 0.396118, 0.723145, -0.579834, -0.549316, 0.061035, 0.976563
900797, 0.404907, 0.721802, -0.581543, -0.488281, 0.549316, 1.281738
900817, 0.402344, 0.723145, -0.582764, -0.610352, 0.549316, 1.037598
900837, 0.378906, 0.723389, -0.580566, -0.854492, 2.868653, 1.708985
900857, 0.394287, 0.722778, -0.583130, -0.854492, 5.493164, 3.234864
900877, 0.427734, 0.724121, -0.567139, -0.549316, 3.784181, 3.051759
900897, 0.431396, 0.723877, -0.564453, 0.305176, 0.793457, 1.831055
900917, 0.433105, 0.720825, -0.571411, 0.976563, -1.220703, 0.610352
900937, 0.412842, 0.720215, -0.593628, 0.244141, -2.075195, -1.098633
900957, 0.400757, 0.717041, -0.592285, -1.098633, -1.159668, -1.220703
900977, 0.397095, 0.723877, -0.574219, -1.525879, -0.305176, -0.244141
900997, 0.403320, 0.724365, -0.572144, -1.159668, 0.000000, 0.183106
901017, 0.403076, 0.723389, -0.580078, -1.098633, 0.793457, 0.732422
901037, 0.420044, 0.722168, -0.581299, -1.464844, 0.915528, 0.549316
901057, 0.406982, 0.722534, -0.577393, -1.892090, 0.976563, 0.244141
901077, 0.406372, 0.724487, -0.572510, -2.075195, 0.732422, 0.854492
901097, 0.418823, 0.726318, -0.561646, -1.525879, -0.427246, 0.915528
901117, 0.418457, 0.729126, -0.551514, -0.244141, -1.281738, 0.549316
901137, 0.416870, 0.724854, -0.568604, 1.464844, -2.929688, -0.183106
901157, 0.416748, 0.723633, -0.574951, 1.403809, -3.112794, -0.427246
901177, 0.402710, 0.721191, -0.589478, 0.549316, -2.441406, -0.671387
901197, 0.393555, 0.721313, -0.590820, -0.915528, -0.427246, 0.183106
901217, 0.398438, 0.724487, -0.575928, -1.647950, 1.037598, 1.220703
901237, 0.413330, 0.729248, -0.554810, -0.854492, 1.281738, 1.586915
901257, 0.430054, 0.727539, -0.552856, 0.793457, 0.183106, 0.915528
901277, 0.429077, 0.725098, -0.568237, 1.647950, -0.976563, -0.610352
901297, 0.408691, 0.721313, -0.580566, 1.403809, -1.159668, -0.915528
901317, 0.410645, 0.721924, -0.578003, 0.183106, -0.793457, -0.305176
901337, 0.418823, 0.725586, -0.566284, 0.183106, -1.281738, -0.305176
901357, 0.426270, 0.729126, -0.552979, 1.342773, -2.502441, -0.976563
901377, 0.422363, 0.726685, -0.563721, 2.685547, -3.662110, -1.892090
901397, 0.402466, 0.723633, -0.582764, 2.685547, -3.845216, -2.258301
901417, 0.379883, 0.722656, -0.589844, 1.708985, -2.441406, -0.427246
901437, 0.407471, 0.723022, -0.584351, 0.671387, -1.098633, 0.427246
901457, 0.403809, 0.723633, -0.576172, 0.488281, -0.549316, 0.244141
901477, 0.415649, 0.722656, -0.576538, 0.366211, 0.244141, 0.305176
901497, 0.419678, 0.724121, -0.571777, 0.671387, -0.183106, -0.610352
901517, 0.404663, 0.721680, -0.582397, 0.488281, 0.000000, -0.610352
901537, 0.415649, 0.721924, -0.583008, -0.305176, -0.183106, -0.671387
901557, 0.418945, 0.720215, -0.587524, -1.159668, -0.366211, -1.525879
901577, 0.408081, 0.724243, -0.583740, -2.014160, -0.183106, -1.647950
901597, 0.397461, 0.726929, -0.570679, -2.197266, 0.366211, -1.037598
901617, 0.413574, 0.734009, -0.549927, -1.037598, 0.610352, -0.793457
901637, 0.434814, 0.738525, -0.549561, 1.586915, 1.586915, -2.563477
901657, 0.439087, 0.733643, -0.562744, 3.295899, -4.821777, -3.845216
901677, 0.367065, 0.724731, -0.584961, 2.807618, -5.615236, -2.624512
901697, 0.402100, 0.717407, -0.588135, 3.112794, -1.831055, -1.220703
901717, 0.351318, 0.718506, -0.597046, 0.915528, 0.732422, 0.122070
901737, 0.354980, 0.708130, -0.618774, -2.380371, 2.807618, 4.455566
901757, 0.392212, 0.720337, -0.595581, -4.882813, 6.652834, 5.737307
901777, 0.404419, 0.719360, -0.591797, -6.347658, 10.437012, 5.493164
901797, 0.451538, 0.731201, -0.575073, -7.873537, 8.850098, 5.187988
901817, 0.505371, 0.731567, -0.536865, -6.530764, 5.249023, 0.732422
901837, 0.526855, 0.737305, -0.510010, -3.417970, -1.342773, -7.263186
901857, 0.447754, 0.740234, -0.542236, -0.244141, -8.911133, -11.291508
901877, 0.408447, 0.738525, -0.581055, -0.061035, -10.437012, -11.413578
901897, 0.260010, 0.767456, -0.689819, -8.850098, -0.244141, -3.479005
901917, 0.314697, 0.753662, -0.646484, -23.376472, 5.493164, 5.859377
901937, 0.424194, 0.850586, -0.530762, -14.282230, -1.647950, 0.915528
901957, 0.394043, 0.999390, -0.557861, 18.493652, -21.728516, -10.925293
901977, 0.290894, 0.869141, -0.760254, 36.560059, -37.170410, -18.127441
901997, 0.127930, 0.778320, -0.835205, 37.231445, -33.020020, -21.789551
902017, 0.001465, 0.702148, -0.923096, 24.414070, -18.859863, -21.606445
902037, 0.080811, 0.802612, -0.810181, 19.226074, 5.981447, -22.338875
902057, 0.164795, 0.838501, -0.687500, 40.588379, 9.521484, -34.240723
902078, 0.147461, 0.637451, -0.770996, 50.476089, 18.981934, -50.476089
902098, 0.211304, 0.578247, -0.702637, 42.114258, 20.507813, -51.391617
902118, 0.234253, 0.579712, -0.636230, 33.569336, 23.498543, -54.077164
902138, 0.248413, 0.635376, -0.557739, 30.639656, 33.752441, -52.612320
902158, 0.310791, 0.679688, -0.516846, 31.372078, 46.081558, -40.222168
902178, 0.376343, 0.613281, -0.521484, 26.489265, 51.940933, -35.705566
902198, 0.419067, 0.577271, -0.494019, 13.183598, 49.804703, -36.621094
902218, 0.443481, 0.654541, -0.420776, 5.798342, 46.569839, -32.836914
902238, 0.446167, 0.653076, -0.408203, 2.502441, 42.541504, -24.841316
902258, 0.491211, 0.748901, -0.389771, -2.868653, 32.775879, -24.414070
902278, 0.498413, 0.719849, -0.375732, 1.342773, 21.484375, -24.963387
902298, 0.448730, 0.666504, -0.451050, -8.422852, 16.662598, -8.239746
902318, 0.462524, 0.657349, -0.401733, -21.240234, 14.770512, 8.239746
902338, 0.470337, 0.695679, -0.370483, -21.484375, 12.268070, 11.474613
902358, 0.451660, 0.672241, -0.452637, -18.920898, 4.882813, 5.676271
902378, 0.294189, 0.799683, -0.525269, -21.667480, 6.591799, 7.019045
902398, 0.269775, 1.296387, -0.501831, 18.371582, 26.977547, 37.597656
902418, 0.564331, 0.920410, -0.869141, 38.635254, 41.625977, 47.241226
902438, 0.564819, 0.696411, -0.769409, -9.338379, 18.005371, 9.521484
902458, 0.428345, 0.735718, -0.526733, 6.958010, -0.976563, 3.295899
902478, 0.396851, 0.591431, -0.694580, 1.159668, -6.103518, 2.319336
902498, 0.381470, 0.685303, -0.564697, -7.324221, 2.319336, 6.469728
902518, 0.437744, 0.695068, -0.618164, -1.892090, 12.695316, 6.286623
902538, 0.434570, 0.692383, -0.622803, -7.263186, 16.906738, -0.610352
902558, 0.328125, 0.684082, -0.610474, -7.812502, 14.709476, 3.051759
902578, 0.318726, 0.682373, -0.596069, -11.596684, 19.653320, 7.812502
902598, 0.364746, 0.756226, -0.597778, -16.357422, 22.766121, 16.113281
902618, 0.467651, 0.744995, -0.526855, -13.549809, 21.484375, 19.165039
902638, 0.462646, 0.703125, -0.520508, -11.230473, 21.240234, 12.878422
902658, 0.453613, 0.757080, -0.526855, -7.995607, 17.028809, 17.211914
902678, 0.714600, 0.735229, -0.446899, -2.990724, -1.098633, 13.671879
902698, 0.942505, 0.698975, -0.520264, 0.244141, -54.809586, -6.347658
902718, 0.422852, 0.628906, -0.675171, -28.625496, -74.768066, 2.441406
902738, 0.418579, 0.696411, -0.443848, -44.006348, -34.729004, 36.193848
902758, 0.590576, 0.740479, -0.406738, -40.100098, -15.075687, 36.743164
902778, 0.381104, 0.728638, -0.533813, -35.339355, -31.250008, 33.386230
902798, 0.240479, 0.818848, -0.578125, -16.906738, -21.362305, 24.414070
902818, 0.215088, 0.788696, -0.660522, -0.976563, 4.699707, 3.723145
902838, 0.239014, 0.792358, -0.535522, 3.173829, 38.574219, 13.122562
902858, 0.770874, 0.883911, -0.272339, 24.597176, 46.264664, 7.202150
902878, 0.869751, 0.786255, -0.464478, 80.932617, -26.977547, -51.940933
902898, 0.373779, 0.647583, -0.806274, 51.269547, -51.940933, -39.855957
902918, 0.432251, 0.636963, -0.641724, 43.334961, -50.598160, -30.517586
902938, 0.346680, 0.499023, -0.742554, 28.747566, -40.527344, -32.043457
902958, 0.187988, 0.502686, -0.599854, 14.648441, -23.010262, -14.770512
902978, 0.235352, 0.525635, -0.573242, 9.338379, 3.906251, 5.249023
902998, 0.329590, 0.534790, -0.622559, -3.845216, 21.057129, 8.789063
903018, 0.376709, 0.764160, -0.540161, -5.310059, 46.691910, 8.666992
903038, 0.501587, 0.878540, -0.644775, 1.159668, 39.855957, 10.864258
903058, 0.578857, 0.702026, -0.679932, -10.559082, 24.841316, 2.380371
903078, 0.401855, 0.745972, -0.567749, -23.254402, 11.169437, -4.028320
903098, 0.314575, 0.809204, -0.410034, -7.751467, 11.169437, 9.521484
903118, 0.274414, 0.751709, -0.446045, 1.831055, 23.071297, 17.333984
903138, 0.353149, 0.885620, -0.674438, 4.333496, 47.607437, 24.719246
903158, 0.734619, 0.855469, -0.683594, -36.926270, 40.222168, 2.014160
903178, 0.702148, 0.811523, -0.496094, -42.358398, 19.714355, -21.850586
903198, 0.616455, 0.719971, -0.402588, -40.954590, -15.441898, -50.598160
903218, 0.523438, 0.666382, -0.362549, -30.883797, -37.170410, -54.687515
903238, 0.300659, 0.622559, -0.440430, -11.230473, -38.391113, -38.330078
903258, 0.213623, 0.615356, -0.525757, 14.343266, -24.780281, -6.225588
903278, 0.384155, 0.647827, -0.687744, 12.878422, -23.132332, 6.530764
903298, 0.419922, 0.687012, -0.756836, 2.685547, -8.605957, 6.958010
903318, 0.426270, 0.723755, -0.645996, -11.596684, -7.141115, 4.821777
903338, 0.441284, 0.764404, -0.503418, -14.465336, -10.803223, 3.356935
903358, 0.452148, 0.781494, -0.437500, -8.850098, -9.826660, 0.244141
