timestamp,ax,ay,az,gx,gy,gz
1021826, 0.434326, 0.515381, -0.746948, 0.976563, -0.549316, 0.244141
1021846, 0.431885, 0.520020, -0.765869, -0.183106, -1.037598, -0.915528
1021866, 0.423828, 0.518188, -0.746948, 0.366211, -0.549316, -0.122070
1021886, 0.435913, 0.513428, -0.757935, 0.061035, -0.427246, -0.854492
1021906, 0.441772, 0.521851, -0.743652, -0.366211, 0.122070, -0.122070
1021926, 0.445679, 0.521606, -0.743530, 0.000000, -0.671387, -0.305176
1021946, 0.431641, 0.525391, -0.752930, 0.183106, -0.854492, 0.000000
1021966, 0.425171, 0.529175, -0.761719, 0.122070, -0.549316, 0.671387
1021986, 0.432739, 0.514526, -0.755127, 0.732422, -0.610352, 0.183106
1022006, 0.427368, 0.510376, -0.757202, 0.000000, -0.854492, -0.793457
1022026, 0.435303, 0.523071, -0.744019, -0.183106, -0.671387, -0.305176
1022046, 0.438965, 0.531372, -0.751465, 0.122070, -0.549316, 0.366211
1022066, 0.439209, 0.524780, -0.743286, 0.488281, -0.610352, 0.549316
1022086, 0.433228, 0.505249, -0.746582, 0.183106, -0.427246, 0.244141
1022106, 0.439941, 0.519043, -0.747559, -0.183106, -0.366211, -0.732422
1022126, 0.433350, 0.534546, -0.755005, 0.732422, -0.610352, -0.671387
1022146, 0.428711, 0.524902, -0.756104, 1.403809, -0.549316, 0.976563
1022166, 0.435669, 0.505371, -0.752930, 0.366211, -0.305176, 1.159668
1022186, 0.437134, 0.513672, -0.748901, -0.183106, -0.549316, 0.061035
1022206, 0.439697, 0.518433, -0.750610, -0.183106, -0.305176, -0.305176
1022226, 0.439697, 0.530884, -0.749023, 0.244141, -0.671387, -0.244141
1022246, 0.434814, 0.527466, -0.749634, 0.976563, -0.793457, -0.183106
1022266, 0.433960, 0.514038, -0.748779, 0.427246, -0.915528, 0.366211
1022286, 0.439453, 0.511841, -0.748779, 0.061035, -0.793457, -0.061035
1022306, 0.430786, 0.512817, -0.754639, -0.061035, -0.793457, -0.549316
1022326, 0.428467, 0.534302, -0.757568, -0.061035, -0.244141, -0.671387
1022346, 0.433472, 0.529297, -0.751221, 0.488281, -0.183106, -0.244141
1022366, 0.436523, 0.521118, -0.746704, 0.000000, -0.305176, 0.183106
1022386, 0.442993, 0.514404, -0.741089, 0.366211, -0.427246, -0.122070
1022406, 0.438477, 0.519531, -0.753784, 0.183106, -0.549316, -0.488281
1022426, 0.434326, 0.522339, -0.752441, 0.244141, -0.732422, -0.488281
1022446, 0.432617, 0.526367, -0.751709, 0.305176, -0.305176, 0.000000
1022466, 0.434082, 0.526611, -0.749756, 0.427246, -0.549316, 0.183106
1022486, 0.438721, 0.512207, -0.747559, 0.488281, -0.610352, 0.122070
1022506, 0.442749, 0.512817, -0.747559, -0.305176, -0.305176, -0.549316
1022526, 0.436890, 0.527100, -0.749268, 0.366211, -0.549316, -0.793457
1022546, 0.427490, 0.526001, -0.757324, 0.427246, -0.244141, -0.427246
1022566, 0.429688, 0.521606, -0.750122, 0.122070, -0.488281, -0.305176
1022586, 0.434204, 0.523438, -0.752197, 0.000000, -0.732422, -0.671387
1022606, 0.437378, 0.525391, -0.746826, 0.183106, -0.610352, -0.244141
1022626, 0.448364, 0.522217, -0.746216, 0.671387, -0.305176, -0.122070
1022646, 0.436768, 0.518677, -0.748779, 0.427246, -0.671387, -0.244141
1022666, 0.430176, 0.523438, -0.750122, 0.366211, -0.427246, 0.244141
1022686, 0.429810, 0.520752, -0.752563, 0.427246, -0.549316, -0.427246
1022706, 0.436523, 0.516235, -0.750000, -0.366211, -0.549316, -0.427246
1022726, 0.445313, 0.522583, -0.746582, -0.305176, -0.793457, -0.610352
1022746, 0.439697, 0.538330, -0.748169, 0.244141, -1.098633, -0.183106
1022766, 0.432739, 0.532959, -0.749023, 1.098633, -1.037598, 0.915528
1022786, 0.432129, 0.517578, -0.748535, 0.976563, -0.549316, 0.671387
1022806, 0.429077, 0.510864, -0.750000, 0.427246, -0.793457, -0.671387
1022826, 0.433716, 0.511719, -0.753296, 0.183106, -0.732422, -0.732422
1022846, 0.442993, 0.532471, -0.750732, -0.244141, -0.183106, -0.305176
1022866, 0.441162, 0.532104, -0.741577, 1.098633, -0.793457, -0.183106
1022886, 0.432495, 0.522827, -0.750854, 0.732422, -0.793457, 0.061035
1022906, 0.432495, 0.514404, -0.753662, 0.244141, -0.549316, -0.122070
1022926, 0.430298, 0.521240, -0.758423, -0.183106, -0.671387, -0.244141
1022946, 0.434692, 0.525513, -0.749390, 0.183106, -0.610352, -0.427246
1022966, 0.444702, 0.522827, -0.745483, 0.244141, -0.610352, 0.122070
1022986, 0.441040, 0.524902, -0.742188, 0.488281, -1.037598, 0.122070
1023006, 0.439331, 0.522095, -0.747437, 0.732422, -0.610352, 0.305176
1023026, 0.429810, 0.520996, -0.755005, 0.732422, -0.732422, 0.000000
1023046, 0.428223, 0.519165, -0.756348, 0.000000, -0.732422, -0.244141
1023066, 0.436890, 0.522339, -0.748535, 0.244141, -0.793457, -0.671387
1023086, 0.438477, 0.525024, -0.747437, 0.549316, -0.793457, -0.488281
1023106, 0.436768, 0.522827, -0.747681, 0.610352, -0.732422, -0.122070
1023126, 0.434082, 0.524536, -0.752686, 0.366211, -1.037598, 0.061035
1023146, 0.430542, 0.512085, -0.741699, 0.854492, -0.976563, 0.427246
1023166, 0.433594, 0.527344, -0.761597, -0.061035, -1.342773, -1.098633
1023186, 0.432129, 0.528076, -0.749756, 0.732422, -0.610352, -0.244141
1023206, 0.436768, 0.512695, -0.752319, -0.122070, -0.732422, -0.244141
1023226, 0.440796, 0.528564, -0.739380, 0.122070, -0.671387, 0.000000
1023246, 0.441284, 0.522583, -0.748535, 0.732422, -0.793457, -0.305176
1023266, 0.434937, 0.520752, -0.746094, 0.427246, -0.549316, 0.122070
1023286, 0.430542, 0.519043, -0.754395, -0.061035, -0.732422, -0.244141
1023306, 0.432617, 0.523071, -0.752319, -0.122070, -0.854492, -0.305176
1023326, 0.437256, 0.528687, -0.751953, 0.610352, -0.915528, -0.244141
1023346, 0.435669, 0.525024, -0.750244, 0.915528, -0.976563, 0.000000
1023366, 0.434204, 0.518555, -0.746216, 0.793457, -0.915528, -0.122070
1023386, 0.426270, 0.519653, -0.749268, 0.366211, -0.305176, 0.122070
1023406, 0.427246, 0.513184, -0.732422, 1.037598, 0.061035, 0.732422
1023426, 0.456543, 0.526489, -0.787354, -1.403809, -0.915528, -2.075195
1023446, 0.424438, 0.549194, -0.733521, 1.464844, -0.305176, 0.732422
1023466, 0.429688, 0.504150, -0.763184, -1.098633, -1.647950, -1.403809
1023486, 0.432007, 0.543945, -0.736816, 0.793457, -0.610352, -0.244141
1023506, 0.431396, 0.516968, -0.771973, 0.610352, -0.793457, 0.183106
1023526, 0.429932, 0.520020, -0.741699, 0.122070, -0.305176, -0.061035
1023546, 0.436035, 0.519409, -0.755127, 0.732422, -0.549316, -0.732422
1023566, 0.435059, 0.526245, -0.747437, 0.244141, -0.732422, -0.366211
1023586, 0.439941, 0.521973, -0.748047, 0.793457, -0.427246, 0.061035
1023606, 0.435669, 0.516113, -0.746094, 0.122070, -0.854492, -0.061035
1023626, 0.432251, 0.521484, -0.751465, 0.183106, -0.854492, -0.915528
1023646, 0.433472, 0.523315, -0.757080, 0.061035, -0.732422, -0.671387
1023666, 0.432495, 0.524170, -0.745972, 0.854492, -0.183106, 0.000000
1023686, 0.435181, 0.519165, -0.750854, 0.183106, -0.793457, -0.244141
1023706, 0.437012, 0.525391, -0.745239, 0.366211, -0.732422, 0.122070
1023726, 0.436523, 0.521362, -0.753174, 0.549316, -0.732422, 0.000000
1023746, 0.430786, 0.523560, -0.750732, 0.305176, -0.732422, 0.000000
1023766, 0.433838, 0.519409, -0.752930, 0.488281, -0.915528, -0.244141
1023786, 0.434204, 0.521362, -0.752930, 0.061035, -0.732422, -0.244141
1023806, 0.436401, 0.522339, -0.746460, 0.122070, -0.671387, -0.183106
1023826, 0.436157, 0.523682, -0.744751, 0.244141, -0.549316, 0.000000
1023846, 0.436890, 0.526978, -0.749146, 0.183106, -0.793457, 0.183106
1023866, 0.437866, 0.521118, -0.750000, 0.427246, -1.159668, -0.061035
1023886, 0.432373, 0.523682, -0.755249, 0.244141, -0.976563, -0.244141
1023906, 0.428223, 0.528076, -0.754395, 0.610352, -0.488281, 0.061035
1023926, 0.423828, 0.523071, -0.756226, 0.610352, -0.122070, 0.305176
1023946, 0.423340, 0.526367, -0.748291, 0.244141, -0.549316, -0.549316
1023966, 0.435059, 0.527954, -0.747681, 0.610352, -0.366211, -0.854492
1023986, 0.444336, 0.526001, -0.746460, 0.732422, -0.610352, -0.976563
1024006, 0.451294, 0.508911, -0.738647, 0.976563, -0.549316, -0.366211
1024026, 0.455322, 0.502563, -0.741089, -0.366211, -1.037598, -0.366211
1024046, 0.429199, 0.530640, -0.757324, 0.976563, -1.525879, -0.549316
1024066, 0.408569, 0.533081, -0.772705, 1.098633, -0.976563, 0.305176
1024086, 0.414673, 0.521973, -0.760132, 1.037598, 0.000000, 0.366211
1024106, 0.430786, 0.512085, -0.749268, 0.305176, -0.732422, -0.488281
1024126, 0.440796, 0.524170, -0.748169, -0.244141, -0.854492, -0.732422
1024146, 0.446289, 0.530518, -0.743896, 0.366211, -0.671387, 0.061035
1024166, 0.440674, 0.523315, -0.743530, 0.305176, -0.793457, 0.976563
1024186, 0.432251, 0.521362, -0.746460, 0.305176, -0.854492, 0.793457
1024206, 0.429688, 0.520874, -0.760010, 0.244141, -0.976563, 0.488281
1024226, 0.427734, 0.522827, -0.755249, 0.000000, -0.488281, 0.793457
1024246, 0.433472, 0.523682, -0.747070, -0.122070, -0.732422, 0.366211
1024266, 0.436890, 0.526978, -0.744751, 0.061035, -0.549316, 0.427246
1024286, 0.442993, 0.526001, -0.747192, 0.305176, -0.488281, 0.549316
1024306, 0.437622, 0.520264, -0.746216, 0.488281, -0.915528, 0.610352
1024326, 0.431641, 0.517700, -0.751221, 0.305176, -1.098633, 0.366211
1024346, 0.428833, 0.520020, -0.754517, 0.549316, -0.915528, 0.000000
1024366, 0.428467, 0.520996, -0.758545, 0.366211, -0.793457, -0.183106
1024386, 0.433838, 0.520386, -0.750488, 0.366211, -0.732422, -0.610352
1024406, 0.438110, 0.522705, -0.747192, 0.244141, -0.671387, -0.305176
1024426, 0.433838, 0.523560, -0.745728, 0.427246, -0.549316, -0.427246
1024446, 0.436646, 0.521851, -0.748779, 0.244141, -0.427246, -0.366211
1024466, 0.436646, 0.527222, -0.750488, 0.427246, -0.366211, 0.000000
1024486, 0.436523, 0.524048, -0.747314, 0.793457, -0.610352, -0.061035
1024506, 0.433350, 0.521851, -0.752808, 0.854492, -1.037598, -0.366211
1024526, 0.430420, 0.522949, -0.752563, 0.427246, -0.976563, -0.183106
1024546, 0.433350, 0.518799, -0.753296, 0.305176, -0.488281, 0.122070
1024566, 0.435425, 0.517944, -0.750488, 0.183106, -0.793457, -0.305176
1024586, 0.433105, 0.525513, -0.755737, 0.183106, -0.732422, -0.488281
1024606, 0.432251, 0.525024, -0.751953, 0.488281, -0.610352, -0.061035
1024626, 0.437256, 0.523560, -0.747070, 0.549316, -0.549316, 0.061035
1024646, 0.436890, 0.519287, -0.748169, 0.610352, -0.854492, -0.122070
1024666, 0.435303, 0.520020, -0.750977, 0.122070, -0.915528, -0.305176
1024686, 0.434570, 0.521484, -0.750610, 0.427246, -0.915528, -0.366211
1024706, 0.435913, 0.519775, -0.749756, 0.244141, -0.854492, -0.244141
1024726, 0.433228, 0.523071, -0.749512, 0.488281, -0.793457, -0.244141
1024746, 0.434692, 0.523682, -0.753418, 0.305176, -0.488281, 0.000000
1024766, 0.433594, 0.521484, -0.753784, 0.488281, -0.671387, -0.122070
1024786, 0.431519, 0.515137, -0.751099, 0.183106, -0.610352, -0.244141
1024806, 0.435181, 0.521851, -0.750854, 0.061035, -0.671387, -0.305176
1024826, 0.435669, 0.524536, -0.748413, 0.061035, -0.671387, -0.305176
1024846, 0.436523, 0.527832, -0.748779, 0.366211, -0.549316, -0.244141
1024866, 0.436035, 0.521362, -0.749268, 0.366211, -0.549316, -0.061035
1024886, 0.434448, 0.521362, -0.749023, 0.122070, -0.854492, -0.061035
1024906, 0.429077, 0.523071, -0.753906, 0.366211, -0.671387, -0.061035
1024926, 0.431519, 0.521362, -0.754150, 0.122070, -0.671387, -0.183106
1024946, 0.435303, 0.525635, -0.748047, 0.183106, -0.610352, 0.000000
1024966, 0.436646, 0.527344, -0.746826, 0.366211, -0.793457, 0.061035
1024986, 0.433594, 0.520264, -0.750488, 0.427246, -0.488281, 0.122070
1025006, 0.431519, 0.520630, -0.752686, 0.305176, -0.488281, 0.061035
1025026, 0.432861, 0.518921, -0.753662, 0.000000, -0.610352, -0.122070
1025046, 0.432007, 0.528442, -0.749512, 0.366211, -0.976563, -0.549316
1025066, 0.434204, 0.524292, -0.752930, 0.549316, -0.610352, -0.122070
1025086, 0.438599, 0.525146, -0.745483, 0.488281, -0.610352, 0.122070
1025106, 0.436523, 0.516479, -0.745850, 0.549316, -0.854492, 0.000000
1025126, 0.433594, 0.521484, -0.754272, -0.122070, -0.732422, -0.183106
1025146, 0.430908, 0.526978, -0.749512, 0.427246, -0.854492, -0.183106
1025166, 0.428223, 0.521729, -0.752563, 0.305176, -0.732422, -0.366211
1025186, 0.434937, 0.520508, -0.748291, 0.366211, -0.244141, -0.061035
1025206, 0.447266, 0.523682, -0.744873, 0.488281, -0.366211, 0.183106
1025226, 0.439209, 0.521729, -0.745239, 0.793457, -0.793457, 0.061035
1025246, 0.428345, 0.518921, -0.753418, 0.427246, -0.549316, -0.122070
1025266, 0.425659, 0.526489, -0.754517, 0.244141, -0.549316, -0.122070
1025286, 0.427856, 0.524048, -0.758423, 0.305176, -0.671387, -0.122070
1025306, 0.434448, 0.518311, -0.750610, 0.366211, -0.793457, -0.061035
1025326, 0.436523, 0.514404, -0.749634, 0.000000, -0.671387, -0.244141
1025346, 0.443359, 0.528320, -0.744263, 0.183106, -0.793457, -0.183106
1025366, 0.432617, 0.524170, -0.748169, 0.793457, -0.732422, 0.183106
1025386, 0.429932, 0.520874, -0.750977, 0.305176, -0.854492, -0.122070
1025406, 0.431396, 0.522583, -0.755249, 0.427246, -0.671387, -0.244141
1025426, 0.433228, 0.518066, -0.755615, 0.549316, -0.732422, -0.122070
1025446, 0.433472, 0.514282, -0.751953, 0.305176, -0.549316, -0.549316
1025466, 0.432861, 0.529663, -0.756592, 0.122070, -0.549316, -0.793457
1025486, 0.427612, 0.543335, -0.751587, 0.671387, -0.427246, 0.610352
1025526, 0.434204, 0.512695, -0.744507, 0.366211, -1.037598, 0.976563
1025546, 0.439819, 0.507080, -0.745972, 0.061035, -0.915528, -0.244141
1025566, 0.441284, 0.520630, -0.751221, 0.183106, -0.793457, -0.122070
1025586, 0.422729, 0.523071, -0.758911, 0.610352, -1.342773, -0.305176
1025606, 0.416992, 0.537109, -0.761475, 1.098633, -0.671387, -0.671387
1025626, 0.415649, 0.564697, -0.765991, 5.554201, 0.183106, -1.464844
1025646, 0.403198, 0.556274, -0.774780, 9.765625, 1.098633, -2.502441
1025666, 0.381714, 0.537476, -0.767334, 13.610844, 3.784181, -3.479005
1025686, 0.388184, 0.521973, -0.775269, 18.188477, 6.286623, -5.493164
1025706, 0.342285, 0.493652, -0.757446, 25.878914, 19.531250, -7.690432
1025726, 0.352661, 0.470459, -0.763916, 35.827637, 35.949707, -10.131836
1025746, 0.364990, 0.440918, -0.797241, 30.395515, 55.480972, -9.277344
1025766, 0.390625, 0.463135, -0.744629, 31.860359, 67.993164, -15.014652
1025786, 0.424683, 0.377686, -0.763550, 27.587898, 75.500488, -21.179199
1025806, 0.454102, 0.350952, -0.732544, 12.878422, 83.190918, -19.897461
1025826, 0.549927, 0.428467, -0.680420, 0.122070, 84.777832, -16.967773
1025846, 0.655396, 0.510620, -0.665771, -9.033203, 77.697754, -8.911133
1025866, 0.773682, 0.609741, -0.613892, -13.488773, 59.936539, 2.136230
1025886, 0.916138, 0.663208, -0.575928, -15.380863, 26.794441, 22.277840
1025906, 0.874512, 0.592285, -0.518311, -21.850586, -9.826660, 41.442871
1025926, 0.872070, 0.529297, -0.497070, -27.160652, -48.278824, 41.015625
1025946, 0.786011, 0.462646, -0.555786, -24.292000, -89.782745, 18.859863
1025966, 0.581299, 0.453003, -0.620361, -17.761230, -111.206085, -0.549316
1025986, 0.348755, 0.442627, -0.752563, -9.094238, -101.928741, -13.732914
1026006, 0.224854, 0.437622, -0.856689, -5.065918, -78.674316, -22.338875
1026026, 0.105347, 0.457275, -0.902588, -3.112794, -41.748047, -14.953617
1026046, 0.207520, 0.448608, -0.884033, -9.948730, -3.845216, 1.342773
1026066, 0.381470, 0.510010, -0.803711, -12.268070, 5.981447, 6.164553
1026086, 0.468872, 0.511108, -0.695923, -7.324221, 13.977055, 3.234864
1026106, 0.576904, 0.528320, -0.666870, -5.187988, 14.953617, 1.953125
1026126, 0.641479, 0.576416, -0.640869, 2.624512, -0.244141, 3.295899
1026146, 0.525391, 0.523682, -0.691162, 5.371094, -1.831055, 3.662110
1026166, 0.515259, 0.512695, -0.732422, 2.990724, -7.629396, 3.173829
1026186, 0.545288, 0.528809, -0.729004, 0.854492, -14.709476, 7.385256
1026206, 0.490479, 0.504395, -0.739380, -0.305176, -24.230965, 5.554201
1026226, 0.451904, 0.456543, -0.754028, -2.685547, -24.353035, 5.249023
1026246, 0.407104, 0.431152, -0.773315, -4.943848, -24.536140, -1.403809
1026266, 0.376953, 0.458984, -0.774292, -4.821777, -14.526371, -3.967286
1026286, 0.373657, 0.484253, -0.784180, -0.427246, -3.173829, -7.080080
1026306, 0.442871, 0.513062, -0.773438, 0.305176, -0.610352, -7.263186
1026326, 0.452271, 0.527100, -0.744873, 1.708985, 0.305176, -4.577637
1026346, 0.472656, 0.522949, -0.735840, 1.892090, -0.366211, -3.540040
1026366, 0.478027, 0.514771, -0.719849, 2.014160, 0.061035, -2.319336
1026386, 0.478149, 0.513062, -0.728638, 0.915528, -0.610352, -0.610352
1026406, 0.467773, 0.521362, -0.738770, 0.488281, -0.732422, 1.342773
1026426, 0.452026, 0.509399, -0.751343, 0.854492, -0.915528, 1.464844
1026446, 0.442993, 0.494507, -0.753906, -0.183106, -1.342773, 0.976563
1026466, 0.448486, 0.499146, -0.759399, -0.305176, -1.525879, -0.488281
1026486, 0.451660, 0.504272, -0.762817, 0.488281, -1.037598, -0.976563
1026506, 0.455078, 0.499390, -0.743530, 0.183106, -0.244141, -0.427246
1026526, 0.460205, 0.499878, -0.741943, 0.000000, -0.122070, -1.342773
1026546, 0.463501, 0.508423, -0.742798, -0.671387, -0.183106, -1.037598
1026566, 0.467407, 0.519531, -0.738892, 0.305176, -0.183106, -0.366211
1026586, 0.462891, 0.510986, -0.742432, 0.610352, -0.671387, -0.305176
1026606, 0.459595, 0.518433, -0.744385, 0.427246, -1.098633, -0.244141
1026626, 0.448730, 0.511719, -0.750732, 0.976563, -0.793457, 0.122070
1026646, 0.447510, 0.499756, -0.749390, 0.488281, -0.976563, -0.366211
1026666, 0.450439, 0.503418, -0.749634, 0.305176, -0.671387, -1.037598
1026686, 0.456299, 0.510742, -0.750122, 1.098633, -0.183106, 0.122070
1026706, 0.465454, 0.508423, -0.739990, 0.976563, 0.183106, 0.671387
1026726, 0.467773, 0.524048, -0.744629, 1.525879, -0.671387, 1.647950
1026746, 0.467773, 0.525269, -0.745483, 3.051759, -0.549316, 3.540040
1026766, 0.466431, 0.510254, -0.747192, 3.967286, -0.244141, 4.211426
1026786, 0.458374, 0.514282, -0.750488, 4.455566, -0.915528, 5.126953
1026806, 0.461304, 0.532227, -0.753418, 5.554201, -0.793457, 6.713869
1026826, 0.461670, 0.526245, -0.753296, 7.690432, -0.976563, 10.192871
1026846, 0.452637, 0.470703, -0.752441, 5.798342, -0.366211, 10.803223
1026866, 0.467407, 0.456299, -0.731567, 4.638672, -0.610352, 7.446291
1026886, 0.462524, 0.438354, -0.759644, 3.601075, -1.586915, -0.671387
1026906, 0.450684, 0.464478, -0.778687, 1.098633, -1.159668, -2.380371
1026926, 0.442261, 0.476807, -0.777344, -0.488281, 1.647950, -1.770020
1026946, 0.460571, 0.496948, -0.757690, -0.305176, -0.366211, -3.417970
1026966, 0.463501, 0.512695, -0.749878, 0.122070, -0.122070, -0.732422
1026986, 0.478760, 0.502930, -0.741455, 0.671387, -0.854492, -0.183106
1027006, 0.487793, 0.490112, -0.734375, 0.732422, -1.159668, -0.122070
1027026, 0.480225, 0.487793, -0.743530, 1.281738, -1.892090, -0.244141
1027046, 0.473145, 0.482788, -0.753174, 1.342773, -1.586915, 0.122070
1027066, 0.460693, 0.483032, -0.757324, 1.403809, -1.892090, -0.366211
1027086, 0.457031, 0.497925, -0.766968, 1.831055, -1.281738, 0.122070
1027106, 0.461548, 0.490845, -0.764404, 2.929688, -0.610352, 1.342773
1027126, 0.465332, 0.464722, -0.752686, 1.647950, -0.427246, 1.098633
1027146, 0.468140, 0.470093, -0.748779, 0.976563, -0.610352, -0.305176
1027166, 0.464478, 0.482544, -0.764038, 1.037598, -0.854492, -0.976563
1027186, 0.458618, 0.474243, -0.763428, 0.732422, -0.244141, -1.464844
1027206, 0.458374, 0.473999, -0.755127, -0.366211, -0.488281, -2.807618
1027226, 0.450317, 0.507935, -0.767334, 0.366211, -0.610352, -1.281738
1027246, 0.464355, 0.502319, -0.762329, 1.159668, -0.061035, 0.000000
1027266, 0.464966, 0.473145, -0.748047, 1.342773, -0.549316, -1.403809
1027286, 0.470947, 0.461670, -0.748901, 0.305176, -0.488281, -3.112794
1027306, 0.473022, 0.481812, -0.751587, -1.098633, -0.183106, -3.723145
1027326, 0.468384, 0.537842, -0.759033, -0.183106, -0.549316, 0.183106
1027346, 0.466431, 0.537720, -0.754517, 2.624512, -1.220703, 3.784181
1027366, 0.459473, 0.478638, -0.741089, 3.112794, -1.831055, 3.417970
1027386, 0.464233, 0.446045, -0.748047, 1.525879, -1.403809, 1.403809
1027406, 0.484253, 0.442505, -0.761719, 0.732422, -1.098633, -0.915528
1027426, 0.467896, 0.441284, -0.769165, 0.000000, -0.366211, -2.929688
1027446, 0.447510, 0.502319, -0.775879, -0.732422, 0.549316, -2.380371
1027466, 0.448853, 0.521973, -0.768921, -0.122070, 0.305176, -0.244141
1027486, 0.446289, 0.501587, -0.748413, -0.061035, -0.061035, 0.732422
1027506, 0.459351, 0.483643, -0.742065, -0.976563, -0.488281, -0.305176
1027526, 0.467041, 0.486572, -0.748047, -1.403809, -1.342773, -1.403809
1027546, 0.463623, 0.483643, -0.760010, -1.220703, -1.220703, -1.037598
1027566, 0.465210, 0.476685, -0.763184, -1.342773, -0.854492, -1.220703
1027586, 0.465088, 0.480347, -0.762817, -1.037598, -0.549316, -1.037598
1027606, 0.461426, 0.489746, -0.760498, -0.610352, 0.122070, -0.854492
1027626, 0.460327, 0.494507, -0.753296, -0.366211, -0.183106, -0.610352
1027646, 0.424561, 0.497437, -0.740112, 0.061035, 4.211426, 0.793457
1027666, 0.483032, 0.491455, -0.740479, 1.098633, 12.390141, 4.577637
1027686, 0.545410, 0.493042, -0.752441, 0.671387, 2.807618, 1.586915
1027706, 0.461426, 0.489624, -0.737061, 1.159668, -2.319336, -0.122070
1027726, 0.463989, 0.481689, -0.764160, 0.366211, -1.708985, 1.159668
1027746, 0.437012, 0.481934, -0.767212, 0.000000, -1.953125, -0.793457
1027766, 0.452515, 0.480103, -0.772095, -0.610352, -0.854492, -1.220703
1027786, 0.456055, 0.489380, -0.758057, -0.610352, -0.854492, -1.892090
1027806, 0.474609, 0.488892, -0.745850, -0.244141, -0.427246, -1.770020
1027826, 0.500977, 0.496338, -0.729248, -0.549316, -0.793457, -0.671387
1027846, 0.487305, 0.495483, -0.734863, 0.366211, -2.685547, -1.037598
1027866, 0.468018, 0.491211, -0.748169, 0.488281, -2.319336, -0.488281
1027886, 0.462402, 0.479736, -0.759644, 0.305176, -1.220703, 0.244141
1027906, 0.456787, 0.479370, -0.766113, -0.366211, -0.976563, -0.183106
1027926, 0.458130, 0.483521, -0.762085, -0.122070, -0.549316, -0.488281
1027946, 0.464111, 0.485596, -0.757446, -0.244141, -0.488281, -0.549316
1027966, 0.470459, 0.493652, -0.748901, -0.061035, -0.488281, -0.915528
1027986, 0.472534, 0.493042, -0.744995, 0.244141, -0.122070, -0.610352
1028006, 0.475220, 0.499634, -0.742554, 0.427246, -0.549316, -0.427246
1028026, 0.468872, 0.490723, -0.747559, 0.854492, -0.915528, -0.549316
1028046, 0.468750, 0.492188, -0.748657, 0.549316, -0.610352, -0.732422
1028066, 0.467896, 0.498535, -0.752563, 0.732422, -0.732422, -0.976563
1028086, 0.458496, 0.503784, -0.754883, 1.281738, -0.976563, -0.366211
1028106, 0.454956, 0.492554, -0.756958, 1.342773, -0.915528, 0.000000
1028126, 0.458008, 0.482788, -0.762085, 0.549316, -0.732422, -0.549316
1028146, 0.458496, 0.484863, -0.754272, -0.610352, -0.793457, -1.342773
1028166, 0.466919, 0.502319, -0.754761, 0.427246, -1.159668, -0.183106
1028186, 0.468262, 0.493530, -0.752319, 0.793457, -1.098633, -0.061035
1028206, 0.460205, 0.484619, -0.747314, 0.671387, -1.037598, -0.305176
1028226, 0.470825, 0.490234, -0.751587, 1.037598, -0.549316, 0.244141
1028246, 0.464355, 0.496094, -0.757202, 0.488281, -1.525879, -0.122070
1028266, 0.459717, 0.500732, -0.750000, 1.464844, -0.793457, 0.244141
1028286, 0.463745, 0.490601, -0.752563, 1.159668, -1.037598, 0.183106
1028306, 0.474365, 0.499023, -0.746460, 1.037598, -0.610352, 1.403809
1028326, 0.473267, 0.494263, -0.748169, 2.075195, -1.281738, 1.770020
1028346, 0.455811, 0.479614, -0.757690, 0.976563, -1.708985, 1.586915
1028366, 0.453491, 0.498413, -0.760742, 0.427246, -1.159668, 1.159668
1028386, 0.451416, 0.500488, -0.757568, 0.427246, -1.708985, 1.403809
1028406, 0.459595, 0.497070, -0.751099, 0.793457, -1.647950, 1.892090
1028426, 0.461060, 0.469971, -0.753540, 0.671387, -1.831055, 0.366211
1028446, 0.472290, 0.457886, -0.755737, -0.488281, -1.220703, -1.159668
1028466, 0.472290, 0.463379, -0.758667, -0.427246, -0.976563, -2.685547
1028486, 0.465820, 0.466675, -0.766479, -0.549316, -0.488281, -2.441406
1028506, 0.476074, 0.483521, -0.753174, -0.488281, 0.610352, -1.586915
1028526, 0.483765, 0.495117, -0.750122, 0.610352, -0.305176, -1.647950
1028546, 0.469727, 0.502197, -0.746216, 0.610352, -0.732422, -0.732422
1028566, 0.468750, 0.504150, -0.739746, 1.220703, -0.549316, 0.305176
1028586, 0.466309, 0.488525, -0.746948, 0.427246, -1.037598, -0.122070
1028606, 0.459106, 0.484985, -0.755615, 0.549316, -1.342773, -1.220703
1028626, 0.450317, 0.492920, -0.765869, 0.671387, -1.525879, -2.563477
1028646, 0.447388, 0.490601, -0.768799, 1.281738, -1.770020, -2.502441
1028666, 0.446777, 0.481079, -0.770142, 0.793457, -0.976563, -1.159668
1028686, 0.461792, 0.482544, -0.764160, -0.244141, -0.610352, -0.671387
1028706, 0.455566, 0.491821, -0.757324, 0.244141, -1.037598, -1.342773
1028726, 0.450195, 0.494141, -0.760376, 0.793457, -0.366211, -2.807618
1028746, 0.457397, 0.497925, -0.745605, 1.831055, 0.183106, -4.394531
1028766, 0.464722, 0.494751, -0.740479, 1.953125, 0.122070, -5.432129
1028786, 0.467529, 0.504150, -0.748779, 4.333496, -0.732422, -8.728027
1028806, 0.454712, 0.501831, -0.774170, 4.760742, -1.159668, -6.042482
1028826, 0.452148, 0.502441, -0.758057, 2.197266, -0.610352, -1.831055
1028846, 0.478394, 0.497559, -0.727295, 3.417970, -0.427246, -0.915528
1028866, 0.467407, 0.496338, -0.761230, 5.493164, -0.976563, -1.525879
1028886, 0.449219, 0.493530, -0.776855, 5.004883, -1.098633, -0.244141
1028906, 0.429443, 0.481567, -0.784546, 5.249023, -0.244141, 0.793457
1028926, 0.433105, 0.464233, -0.791016, 3.784181, -0.610352, 1.037598
1028946, 0.417236, 0.474609, -0.791504, 4.699707, -0.305176, -0.366211
1028966, 0.422119, 0.474121, -0.782471, 7.568361, 1.831055, -4.638672
1028986, 0.458252, 0.438110, -0.759155, 11.169437, 2.380371, -5.615236
1029006, 0.374023, 0.443726, -0.738281, 17.028809, 14.770512, -6.408693
1029026, 0.418701, 0.417358, -0.739258, 20.080566, 31.066902, -5.065918
1029046, 0.441772, 0.433228, -0.770264, 20.812988, 42.297363, -6.530764
1029066, 0.461914, 0.476807, -0.754150, 25.695808, 45.043961, -10.986328
1029086, 0.432617, 0.513428, -0.758911, 29.113777, 52.490250, -17.761230
1029106, 0.453979, 0.526611, -0.798706, 29.663094, 56.884781, -18.920898
1029126, 0.500854, 0.532227, -0.760376, 27.099617, 57.983414, -16.540527
1029146, 0.595093, 0.504883, -0.730347, 20.446777, 49.743668, -22.155769
1029166, 0.705322, 0.534912, -0.707886, -7.751467, 8.789063, -50.781265
1029186, 0.662842, 0.557007, -0.718506, -22.094727, -24.353035, -58.166519
1029206, 0.621460, 0.517578, -0.713867, -31.005867, -38.574219, -39.733887
1029226, 0.580078, 0.462158, -0.697021, -33.874512, -48.767105, -15.502934
1029246, 0.540283, 0.408081, -0.658203, -39.367676, -58.471695, 2.136230
1029266, 0.544922, 0.409546, -0.609497, -37.719727, -57.312027, 8.544922
1029286, 0.501953, 0.446167, -0.618530, -21.118164, -51.635757, 11.474613
1029306, 0.436523, 0.498535, -0.695435, -7.446291, -42.541504, 16.845703
1029326, 0.394775, 0.495117, -0.774902, -0.122070, -32.165527, 22.521980
1029346, 0.288940, 0.527100, -0.819214, 22.277840, -14.953617, 24.475105
1029366, 0.240601, 0.521484, -0.861938, 29.479988, 2.014160, 18.188477
1029386, 0.300537, 0.521240, -0.869873, 24.414070, 9.033203, 3.601075
1029406, 0.302856, 0.509521, -0.822388, 15.136723, 15.991215, -5.981447
1029426, 0.379272, 0.505859, -0.765137, 6.469728, 32.531738, -1.953125
1029446, 0.519653, 0.522827, -0.716797, 0.122070, 38.024902, 5.432129
1029466, 0.611206, 0.524780, -0.687500, -1.708985, 28.442390, 8.300781
1029486, 0.642822, 0.527222, -0.690308, -2.075195, 6.835939, 6.896975
1029506, 0.509521, 0.503784, -0.704834, -1.098633, -1.159668, 5.065918
1029526, 0.473145, 0.489380, -0.748291, -1.159668, 0.915528, 8.422852
1029546, 0.436890, 0.475708, -0.783447, -1.159668, -1.342773, 5.737307
1029566, 0.437622, 0.462402, -0.785278, -0.610352, -0.854492, 4.028320
1029586, 0.464966, 0.462524, -0.772705, -0.732422, -1.831055, 1.098633
1029606, 0.479858, 0.453857, -0.746216, -1.220703, -1.037598, -0.061035
1029626, 0.504761, 0.470215, -0.732178, -2.685547, -0.244141, -0.122070
1029646, 0.501953, 0.501831, -0.715698, -1.220703, -0.427246, 0.488281
1029666, 0.488403, 0.509888, -0.736816, 0.976563, -0.122070, 1.770020
1029686, 0.472656, 0.496094, -0.745605, 1.159668, -0.305176, 2.258301
1029706, 0.463867, 0.480225, -0.753540, 1.647950, -0.610352, 1.220703
1029726, 0.469360, 0.484375, -0.762207, 0.732422, -1.037598, 0.671387
1029746, 0.484741, 0.490723, -0.746460, 1.464844, -1.098633, 2.502441
1029766, 0.492676, 0.497681, -0.751709, 3.051759, -0.915528, 5.249023
1029786, 0.499146, 0.492798, -0.734009, 5.981447, -1.831055, 8.789063
1029806, 0.495483, 0.494507, -0.734741, 10.620117, -2.014160, 12.817387
1029826, 0.469360, 0.499756, -0.755737, 15.747074, 1.647950, 19.775391
1029846, 0.515991, 0.468994, -0.769531, 16.052246, 2.258301, 25.329597
1029866, 0.489624, 0.455200, -0.727295, 9.643555, 2.380371, 23.620613
1029886, 0.511475, 0.402954, -0.719482, 6.103518, 5.126953, 18.859863
1029906, 0.489014, 0.380981, -0.744019, 0.488281, 6.469728, 12.390141
1029926, 0.526367, 0.407104, -0.765015, -6.652834, 9.399414, 5.920412
1029946, 0.527832, 0.468262, -0.781738, -8.911133, 2.685547, 4.943848
1029966, 0.512085, 0.562134, -0.795776, -6.896975, -0.061035, 10.498047
1029986, 0.526001, 0.595581, -0.780518, -0.488281, 0.732422, 22.033691
1030006, 0.557983, 0.508423, -0.732910, 3.417970, 1.220703, 31.799324
1030026, 0.561646, 0.376587, -0.660522, 7.263186, 0.366211, 33.996582
1030046, 0.557373, 0.278442, -0.679199, 3.601075, -0.671387, 24.047859
1030066, 0.539795, 0.264771, -0.707886, -6.042482, -2.563477, 16.113281
1030086, 0.558105, 0.298706, -0.729004, -13.793949, -1.464844, 11.230473
1030106, 0.567993, 0.421021, -0.749878, -19.653320, -12.390141, 7.812502
1030126, 0.530273, 0.513794, -0.791260, -18.310547, -10.864258, 17.333984
1030146, 0.530640, 0.519653, -0.775146, -14.831547, -8.117676, 21.667480
1030166, 0.526611, 0.489136, -0.737061, -6.958010, -12.084965, 14.282230
1030186, 0.477905, 0.440796, -0.756958, 0.366211, -15.075687, 1.159668
1030206, 0.455078, 0.419434, -0.770630, 4.821777, -10.437012, -8.178711
1030226, 0.470459, 0.388428, -0.772949, 5.187988, -2.685547, -8.483887
1030246, 0.533936, 0.376587, -0.767578, 1.770020, 0.366211, -5.371094
1030266, 0.542236, 0.383667, -0.742554, -1.647950, -0.610352, -5.126953
1030286, 0.535400, 0.401733, -0.739624, -2.014160, -0.427246, -7.019045
1030306, 0.534790, 0.503662, -0.766235, -0.488281, -0.061035, 0.000000
1030326, 0.550781, 0.566406, -0.776978, 5.554201, 0.000000, 11.230473
1030346, 0.530884, 0.521973, -0.759033, 13.366703, -0.610352, 18.066406
1030366, 0.515625, 0.389404, -0.737915, 16.418457, 1.464844, 12.329105
1030386, 0.523315, 0.263550, -0.716553, 12.939457, 4.760742, -0.122070
1030406, 0.532227, 0.216919, -0.716919, 2.380371, 3.112794, -14.709476
1030426, 0.513672, 0.286743, -0.729736, -9.460449, 0.915528, -26.367195
1030446, 0.523560, 0.514893, -0.777466, -12.573246, -2.075195, -19.958496
1030466, 0.566284, 0.736816, -0.845215, -0.305176, 1.342773, 7.263186
1030486, 0.563721, 0.624512, -0.755493, 17.883301, 0.976563, 38.757324
1030506, 0.536865, 0.382935, -0.708008, 17.517090, -7.080080, 27.099617
1030526, 0.545776, 0.225708, -0.704102, 8.361816, -20.019531, 6.958010
1030546, 0.499512, 0.207764, -0.720581, -2.319336, -25.512703, -14.648441
1030566, 0.474243, 0.207275, -0.718872, -7.263186, -15.747074, -25.390633
1030586, 0.469971, 0.277100, -0.750610, -11.230473, -5.065918, -30.090340
1030606, 0.520630, 0.421997, -0.811279, -13.000492, -2.380371, -21.545410
1030626, 0.573486, 0.558105, -0.837524, -9.765625, -3.723145, -10.681152
1030646, 0.516724, 0.528564, -0.771606, -5.371094, -0.488281, 2.380371
1030666, 0.507080, 0.382935, -0.744873, -7.751467, -5.310059, 1.708985
1030686, 0.493652, 0.398438, -0.726929, -7.873537, -4.760742, -7.629396
1030706, 0.504272, 0.443115, -0.778320, -6.103518, -5.554201, -10.375977
1030726, 0.474121, 0.460449, -0.766724, -4.699707, -2.990724, -7.995607
1030746, 0.497559, 0.455444, -0.758057, -1.342773, -2.075195, -3.906251
1030766, 0.498535, 0.440063, -0.763672, -0.976563, -1.647950, -2.685547
1030786, 0.506470, 0.444946, -0.751831, -0.854492, -2.197266, -2.319336
1030806, 0.506348, 0.448364, -0.752686, -0.183106, -3.479005, -2.624512
1030826, 0.495361, 0.453247, -0.754395, -0.366211, -3.601075, -2.197266
1030846, 0.497925, 0.450317, -0.751953, 0.183106, -2.197266, -1.647950
1030866, 0.485474, 0.436890, -0.763550, 0.000000, -2.502441, -2.380371
1030886, 0.490723, 0.444458, -0.769531, -1.159668, -2.502441, -3.234864
1030906, 0.487183, 0.448486, -0.773804, -0.366211, -2.380371, -3.234864
1030926, 0.486572, 0.440430, -0.769043, -0.549316, -2.136230, -2.807618
1030946, 0.490845, 0.432373, -0.760010, -0.793457, -1.770020, -2.929688
1030966, 0.484619, 0.437500, -0.763916, -1.098633, -0.427246, -2.380371
1030986, 0.498657, 0.450562, -0.760132, -1.403809, 4.638672, 1.281738
1031006, 0.528320, 0.460815, -0.756470, -0.427246, 1.159668, -0.915528
1031026, 0.477661, 0.450195, -0.761475, -0.061035, -1.098633, -2.746582
1031046, 0.485718, 0.452515, -0.759766, -0.671387, -0.793457, -2.563477
1031066, 0.491211, 0.469849, -0.756958, -0.854492, -0.915528, -2.746582
1031086, 0.494629, 0.461792, -0.759766, -0.183106, -1.159668, -1.586915
1031106, 0.489014, 0.451782, -0.761230, -0.732422, -0.732422, -1.159668
1031126, 0.499146, 0.450195, -0.748901, 0.061035, -0.488281, -1.525879
1031146, 0.492676, 0.453247, -0.758789, 0.122070, -0.366211, -1.159668
1031166, 0.487061, 0.455933, -0.761719, -0.061035, -0.366211, -0.854492
1031186, 0.480591, 0.465942, -0.763184, -0.244141, -0.732422, -0.244141
1031206, 0.479980, 0.467651, -0.763306, -0.305176, -0.732422, 0.061035
1031226, 0.487915, 0.466187, -0.754150, -0.244141, -0.854492, 0.488281
1031246, 0.489746, 0.462280, -0.762695, 0.244141, -1.403809, 0.915528
1031266, 0.484741, 0.457886, -0.754761, 0.000000, -1.464844, -0.183106
1031286, 0.489990, 0.448242, -0.758545, 0.732422, -0.793457, -0.244141
1031306, 0.485962, 0.450317, -0.763428, 0.061035, -0.793457, -0.915528
1031326, 0.485962, 0.450928, -0.760498, 0.183106, -0.610352, -0.793457
1031346, 0.483521, 0.454834, -0.760986, -0.244141, -0.427246, -1.159668
1031366, 0.483276, 0.457397, -0.761597, -0.305176, -0.732422, -1.281738
1031386, 0.490601, 0.468628, -0.760864, -0.183106, -0.732422, -1.159668
1031406, 0.487915, 0.469849, -0.758423, 0.671387, -0.915528, 0.183106
1031426, 0.488281, 0.462891, -0.757690, 0.732422, -0.671387, 0.854492
1031446, 0.484009, 0.452026, -0.754761, 0.671387, -0.793457, 0.122070
1031466, 0.494751, 0.457275, -0.760254, 0.732422, -0.671387, 0.366211
1031486, 0.494019, 0.458252, -0.754395, 0.671387, -0.610352, 0.488281
1031506, 0.492065, 0.460693, -0.753784, 1.098633, -0.793457, 0.671387
1031526, 0.485229, 0.467529, -0.761353, 1.281738, -0.854492, 0.915528
1031546, 0.479248, 0.452637, -0.765381, 1.403809, -0.915528, 1.037598
1031566, 0.474976, 0.446289, -0.769409, 0.366211, -0.671387, 0.427246
1031586, 0.489502, 0.446289, -0.759033, 0.122070, -0.061035, -0.366211
1031606, 0.500854, 0.458008, -0.755615, 0.427246, -0.305176, -0.061035
1031626, 0.492798, 0.457031, -0.751953, 0.427246, -0.732422, 0.671387
1031646, 0.491821, 0.462769, -0.757935, 0.732422, -0.854492, 1.831055
1031666, 0.487793, 0.451416, -0.758545, 0.732422, -0.488281, 2.258301
1031686, 0.483643, 0.441162, -0.761963, -0.366211, -0.854492, 1.037598
1031706, 0.478394, 0.463745, -0.766235, -0.305176, -1.281738, -0.549316
1031726, 0.481445, 0.464355, -0.769897, 0.366211, -1.098633, -0.549316
1031746, 0.481812, 0.460205, -0.768188, 0.427246, -0.732422, 0.366211
1031766, 0.488525, 0.448242, -0.755859, 0.366211, -0.610352, -0.244141
1031786, 0.493408, 0.445557, -0.755249, 0.061035, -0.610352, -1.037598
1031806, 0.495483, 0.462036, -0.757202, -0.061035, -0.610352, -0.671387
1031826, 0.488892, 0.463257, -0.760498, 0.976563, -0.732422, 1.159668
1031846, 0.482544, 0.450928, -0.757935, 0.549316, -1.403809, 0.488281
1031866, 0.483154, 0.454956, -0.763672, 0.671387, -1.342773, -0.183106
1031886, 0.485474, 0.452759, -0.767456, 0.915528, -0.976563, -0.183106
1031906, 0.485962, 0.448486, -0.761597, 0.427246, -0.854492, -0.244141
1031926, 0.486084, 0.450073, -0.762573, 0.183106, -0.915528, -1.220703
1031946, 0.482666, 0.445435, -0.763672, 0.061035, -0.610352, -1.403809
1031966, 0.497681, 0.453857, -0.760742, -0.244141, 0.000000, -0.427246
1031986, 0.497925, 0.462524, -0.755371, 0.427246, -0.427246, -0.061035
1032006, 0.482300, 0.453735, -0.760986, 0.549316, -0.671387, -0.305176
1032026, 0.483643, 0.451904, -0.757446, -0.183106, -0.732422, -0.488281
1032046, 0.492554, 0.455078, -0.757935, -0.610352, -0.610352, -0.183106
1032066, 0.496582, 0.466309, -0.757080, -0.183106, -0.732422, 0.610352
1032086, 0.487183, 0.457275, -0.757935, 0.427246, -0.793457, 0.854492
1032106, 0.486084, 0.456055, -0.759399, 0.061035, -0.793457, 0.427246
1032126, 0.489014, 0.456177, -0.757935, 0.122070, -0.854492, 0.427246
1032146, 0.486938, 0.457764, -0.764282, 0.183106, -0.854492, 0.610352
1032166, 0.488403, 0.454346, -0.760010, 0.366211, -1.037598, 0.488281
1032186, 0.487427, 0.450562, -0.761108, 0.427246, -1.220703, -0.183106
1032206, 0.486572, 0.457886, -0.762695, 0.549316, -0.732422, -0.122070
1032226, 0.484985, 0.450439, -0.761230, 0.488281, -0.793457, -0.244141
1032246, 0.484375, 0.453613, -0.760254, 0.183106, -0.793457, -0.610352
1032266, 0.489380, 0.460938, -0.759644, 0.122070, -0.793457, -0.732422
1032286, 0.498901, 0.466431, -0.757324, 0.732422, -1.281738, -1.159668
1032306, 0.473633, 0.456665, -0.757568, 1.464844, -1.647950, -0.915528
1032326, 0.439209, 0.438599, -0.750977, 0.610352, 11.352543, 3.112794
1032346, 0.502808, 0.450928, -0.771484, -0.366211, 9.338379, 1.220703
1032366, 0.518433, 0.460449, -0.761719, 0.305176, 5.310059, 0.732422
1032386, 0.511963, 0.452881, -0.753174, 0.000000, 1.037598, -0.427246
1032406, 0.506104, 0.460327, -0.748047, 0.305176, -1.770020, -1.708985
1032426, 0.479126, 0.458130, -0.754272, 0.305176, 1.037598, 0.244141
1032446, 0.502441, 0.455200, -0.755127, 0.183106, 0.244141, -0.061035
1032466, 0.500610, 0.454834, -0.757446, 0.427246, -0.915528, -0.671387
1032486, 0.494873, 0.448853, -0.755859, 0.244141, -0.549316, -0.488281
1032506, 0.502686, 0.451782, -0.750366, -0.549316, -0.610352, -0.427246
1032526, 0.496826, 0.462524, -0.750244, 0.000000, -0.671387, -0.183106
1032546, 0.496826, 0.456299, -0.756592, 0.183106, -0.610352, -0.061035
1032566, 0.496582, 0.461182, -0.758179, 0.305176, -0.976563, -0.244141
1032586, 0.491577, 0.451660, -0.755859, 0.427246, -0.366211, 0.061035
1032606, 0.496948, 0.458618, -0.755249, 0.000000, -0.305176, 0.244141
1032626, 0.502197, 0.453125, -0.749634, 0.305176, -0.305176, 0.488281
1032646, 0.502441, 0.454346, -0.748169, 0.244141, -0.610352, 0.244141
1032666, 0.502197, 0.463379, -0.753784, 0.610352, -0.793457, 0.488281
1032686, 0.492310, 0.458862, -0.755859, 1.098633, -0.854492, 0.671387
1032706, 0.488647, 0.452759, -0.759644, 0.732422, -0.488281, 0.610352
1032726, 0.495361, 0.453003, -0.754028, 0.305176, -0.488281, 0.061035
1032746, 0.498535, 0.452515, -0.752563, 0.488281, -0.549316, -0.305176
1032766, 0.499146, 0.450684, -0.751465, 0.366211, -0.366211, -0.183106
1032786, 0.496826, 0.448486, -0.750610, 0.366211, -0.488281, -0.183106
1032806, 0.497925, 0.466675, -0.756226, 0.366211, -0.610352, -0.427246
1032826, 0.497314, 0.462402, -0.757080, 1.037598, -0.549316, 0.366211
1032846, 0.495483, 0.456177, -0.756348, 0.915528, -0.549316, 0.854492
1032866, 0.499023, 0.452393, -0.751709, 0.671387, -0.671387, 0.427246
1032886, 0.497925, 0.456543, -0.753784, 0.671387, -0.976563, -0.244141
1032906, 0.495361, 0.453857, -0.755981, 0.671387, -0.732422, 0.061035
1032926, 0.498291, 0.455322, -0.752686, 0.610352, -0.854492, 0.183106
1032946, 0.497925, 0.454224, -0.752686, 0.549316, -0.610352, 0.244141
1032966, 0.506226, 0.455933, -0.748901, 0.854492, -0.610352, 0.732422
1032986, 0.499146, 0.451416, -0.756958, 0.915528, -0.793457, 0.976563
1033006, 0.496338, 0.449219, -0.758301, 0.854492, -0.427246, 1.037598
1033026, 0.493164, 0.449951, -0.758911, 0.854492, -0.488281, 0.244141
1033046, 0.490845, 0.452637, -0.759644, 0.854492, -0.671387, -0.305176
1033066, 0.491455, 0.456543, -0.758179, 0.305176, -0.793457, -0.244141
1033086, 0.499268, 0.458862, -0.753052, 0.427246, -0.976563, -0.427246
1033106, 0.500610, 0.455688, -0.755127, 0.976563, -1.037598, -0.122070
1033126, 0.500977, 0.447754, -0.752441, 0.427246, -0.488281, 0.488281
1033146, 0.506470, 0.449097, -0.749268, 0.671387, -0.732422, 0.000000
1033166, 0.494385, 0.455200, -0.762085, 0.488281, -0.793457, 0.244141
1033186, 0.491211, 0.450684, -0.759766, 0.732422, -0.610352, 0.427246
1033206, 0.494263, 0.445313, -0.758423, 0.427246, -0.793457, -0.610352
1033226, 0.493530, 0.451416, -0.756958, 0.183106, -0.915528, -0.976563
1033246, 0.499634, 0.461060, -0.755737, 0.122070, -0.549316, 0.061035
1033266, 0.503540, 0.455322, -0.748169, 0.793457, -0.732422, 0.000000
1033286, 0.503540, 0.443115, -0.751953, 0.671387, -0.610352, -0.488281
1033306, 0.501953, 0.448364, -0.753052, 0.122070, -0.793457, -0.671387
1033326, 0.500366, 0.457275, -0.755005, 0.732422, -0.793457, -0.183106
1033346, 0.494629, 0.443970, -0.756470, 0.549316, -0.671387, 0.183106
1033366, 0.498169, 0.444580, -0.752808, 0.000000, -0.549316, -0.427246
1033386, 0.503418, 0.454590, -0.752075, 0.427246, -0.549316, -0.854492
1033406, 0.496094, 0.453735, -0.757324, 0.854492, -0.427246, -0.366211
1033426, 0.497437, 0.457275, -0.757202, 0.732422, -0.488281, -0.305176
1033446, 0.492310, 0.455566, -0.755859, 1.281738, -0.671387, -0.244141
1033466, 0.497070, 0.457275, -0.761841, 0.732422, -0.305176, 0.793457
1033486, 0.501099, 0.454834, -0.747559, 1.220703, -0.549316, 0.732422
1033506, 0.497681, 0.444458, -0.752441, 1.159668, -0.549316, 0.122070
1033526, 0.498779, 0.452393, -0.755249, 0.793457, -0.671387, -0.183106
1033546, 0.496826, 0.448608, -0.758789, 1.098633, -0.610352, -0.122070
1033566, 0.494263, 0.442749, -0.756958, 0.427246, -0.549316, -0.427246
1033586, 0.499268, 0.447144, -0.754272, -0.061035, -0.549316, -0.732422
1033606, 0.500854, 0.453003, -0.756226, 0.427246, -0.549316, -0.915528
1033626, 0.497925, 0.452271, -0.761353, 0.671387, -0.732422, -0.549316
1033646, 0.497559, 0.453369, -0.758423, 0.976563, -0.671387, -0.549316
1033666, 0.496216, 0.451172, -0.756714, 0.793457, -0.915528, -0.549316
1033686, 0.498169, 0.452759, -0.752930, 0.854492, -0.549316, -0.061035
1033706, 0.502197, 0.452637, -0.748291, 0.793457, -0.183106, -15.625004
1033726, 0.502075, 0.457153, -0.750366, 1.098633, -0.549316, 0.244141
1033746, 0.501099, 0.448242, -0.752441, 1.342773, -0.610352, 0.366211
1033766, 0.504028, 0.444214, -0.759277, 0.976563, -1.403809, -0.122070
1033786, 0.492676, 0.443481, -0.761963, 0.549316, -2.319336, -1.098633
1033806, 0.483032, 0.448242, -0.761841, 0.915528, -0.122070, 0.000000
1033826, 0.495605, 0.450562, -0.768066, 0.610352, -0.549316, -0.366211
1033846, 0.499634, 0.452026, -0.753052, 0.671387, -0.488281, -0.061035
1033866, 0.500244, 0.453613, -0.759033, 1.159668, -0.976563, 0.122070
1033886, 0.506958, 0.440552, -0.760864, 1.098633, -2.685547, -0.915528
1033906, 0.504150, 0.456909, -0.762329, 1.464844, -0.366211, 0.793457
1033926, 0.488281, 0.463867, -0.751831, 1.281738, -0.549316, 1.342773
1033946, 0.496460, 0.462891, -0.748657, 1.220703, -0.854492, 1.220703
1033966, 0.493530, 0.452393, -0.746582, 0.427246, -1.098633, 1.281738
1033986, 0.504150, 0.450439, -0.759277, 0.427246, -1.342773, 1.831055
1034006, 0.502197, 0.432495, -0.761475, 0.854492, -0.976563, 1.647950
1034026, 0.500977, 0.416626, -0.759888, 0.427246, -0.915528, 0.244141
1034046, 0.499146, 0.430664, -0.766846, -0.610352, -0.793457, -0.549316
1034066, 0.498535, 0.447021, -0.767334, 0.122070, -0.671387, -0.244141
1034086, 0.487915, 0.449585, -0.766724, 0.793457, -0.671387, -0.427246
1034106, 0.497803, 0.453979, -0.751099, 0.183106, -0.183106, -0.793457
1034126, 0.513672, 0.459595, -0.739746, 0.183106, -0.183106, -0.427246
1034146, 0.520752, 0.463745, -0.738770, 0.854492, -0.305176, 1.220703
1034166, 0.510498, 0.447266, -0.750732, 2.014160, -0.427246, 1.892090
1034186, 0.497192, 0.426025, -0.766357, 1.403809, -0.488281, 0.976563
1034206, 0.484497, 0.428101, -0.776123, 0.915528, -0.610352, -0.366211
1034226, 0.483887, 0.434082, -0.777588, 0.488281, -0.122070, -0.915528
1034246, 0.487793, 0.439575, -0.765137, 0.244141, -0.061035, -1.403809
1034266, 0.495483, 0.447754, -0.761841, 0.000000, 0.000000, -1.831055
1034286, 0.504639, 0.458862, -0.751587, 0.244141, 0.366211, -0.244141
1034306, 0.515015, 0.453857, -0.745483, 0.305176, -0.366211, 0.488281
1034326, 0.503662, 0.453857, -0.744629, 0.305176, -0.915528, 0.427246
1034346, 0.500244, 0.451904, -0.754883, 0.244141, -0.732422, 0.732422
1034366, 0.496216, 0.449585, -0.762695, 0.000000, -0.854492, 0.366211
1034386, 0.493896, 0.439331, -0.763550, 0.244141, -1.037598, -0.061035
1034406, 0.500000, 0.433350, -0.763550, -0.122070, -0.976563, -1.037598
1034426, 0.499756, 0.440674, -0.757324, -0.244141, -0.793457, -1.037598
1034446, 0.503540, 0.448120, -0.758057, -0.244141, -0.732422, -0.488281
1034466, 0.503540, 0.454834, -0.756836, 15.258793, -0.671387, 1.281738
1034486, 0.499146, 0.437500, -0.753540, 0.305176, -0.854492, 0.366211
1034506, 0.495483, 0.442749, -0.757446, -0.732422, -0.671387, -0.244141
1034526, 0.504150, 0.457275, -0.755249, -0.610352, -0.671387, 0.183106
1034546, 0.498901, 0.453735, -0.758789, 0.305176, -0.671387, 1.098633
1034566, 0.493896, 0.446167, -0.759155, 0.183106, -0.610352, 0.366211
1034586, 0.500000, 0.448364, -0.753906, -0.122070, -0.915528, -0.488281
1034606, 0.501587, 0.452637, -0.762695, 0.732422, -1.281738, -0.122070
1034626, 0.491455, 0.440674, -0.768921, 1.098633, -1.159668, -0.366211
1034646, 0.491211, 0.431152, -0.761841, -0.854492, -2.197266, -2.197266
1034666, 0.515991, 0.458008, -0.756836, 1.037598, -1.159668, -0.488281
1034686, 0.500977, 0.438599, -0.758179, 0.000000, -2.685547, -0.976563
1034706, 0.494751, 0.449707, -0.744141, 1.037598, -0.793457, -0.915528
1034726, 0.510010, 0.435181, -0.764282, 0.793457, -2.746582, -2.258301
1034747, 0.491699, 0.459717, -0.748535, 0.000000, -1.220703, -0.854492
1034767, 0.510864, 0.462280, -0.749634, 2.319336, -1.220703, -0.366211
1034787, 0.499512, 0.437866, -0.761108, 1.831055, -2.502441, -0.610352
1034807, 0.490112, 0.452393, -0.748169, 1.281738, 0.000000, -0.122070
1034827, 0.497925, 0.440918, -0.768188, 1.831055, -0.793457, -0.305176
1034847, 0.484741, 0.448120, -0.756104, 0.183106, -1.281738, -1.037598
1034867, 0.490479, 0.450684, -0.771606, 0.915528, -0.915528, -0.549316
1034887, 0.488647, 0.438599, -0.764648, -0.183106, -0.793457, -0.488281
1034907, 0.502563, 0.448853, -0.757935, -0.305176, -0.610352, -0.427246
1034927, 0.495483, 0.454102, -0.756470, 0.427246, -0.854492, 0.000000
1034947, 0.499146, 0.454224, -0.758423, 0.000000, -0.976563, 0.610352
1034967, 0.491089, 0.454224, -0.756226, -0.244141, -0.732422, 1.281738
1034987, 0.494995, 0.455688, -0.762451, 0.183106, -1.037598, 1.647950
1035007, 0.492920, 0.446289, -0.763306, 0.488281, -1.403809, 1.220703
1035027, 0.489990, 0.432495, -0.763184, 0.061035, -0.976563, -0.366211
1035047, 0.495239, 0.437134, -0.761597, -0.366211, -0.427246, -1.159668
1035067, 0.498413, 0.451538, -0.763184, -0.305176, -0.488281, -0.915528
1035087, 0.498291, 0.450439, -0.755005, 0.000000, -0.488281, -0.427246
1035107, 0.504272, 0.446411, -0.753662, -0.061035, -0.732422, -0.183106
1035127, 0.505249, 0.445068, -0.753906, 0.793457, -0.793457, -0.366211
1035147, 0.491455, 0.439087, -0.760986, -0.793457, -1.708985, -1.464844
1035167, 0.496582, 0.461548, -0.758301, 0.793457, -0.366211, -0.244141
1035187, 0.485107, 0.453125, -0.767456, 0.732422, -0.793457, -0.305176
1035207, 0.487061, 0.449585, -0.760254, 0.427246, -1.098633, -0.976563
1035227, 0.489380, 0.446777, -0.763306, -0.427246, -1.403809, -1.342773
1035247, 0.505249, 0.456177, -0.753906, 0.854492, -0.854492, 0.000000
1035267, 0.496338, 0.449097, -0.759888, 1.220703, -1.159668, 0.244141
1035287, 0.494141, 0.442017, -0.757813, 0.915528, -0.427246, 0.488281
1035307, 0.494385, 0.445435, -0.762085, 0.793457, -0.976563, -0.183106
1035327, 0.488159, 0.451050, -0.767090, 0.793457, -0.793457, -0.122070
1035347, 0.490234, 0.450195, -0.763916, 0.488281, -0.671387, 0.244141
1035367, 0.494629, 0.452881, -0.754028, 0.000000, -0.793457, 0.427246
1035387, 0.496826, 0.456055, -0.752319, 0.183106, -1.098633, 0.244141
1035407, 0.499512, 0.462646, -0.752319, 0.061035, -1.159668, 2.319336
1035427, 0.505005, 0.443115, -0.752197, 0.549316, -0.915528, 3.112794
1035447, 0.492188, 0.425293, -0.760010, 0.488281, -0.732422, 1.831055
1035467, 0.487061, 0.422729, -0.763306, 0.122070, -0.305176, 0.122070
1035487, 0.490845, 0.427002, -0.763794, -1.708985, -0.305176, -0.488281
1035507, 0.508545, 0.480713, -0.800293, -1.281738, -0.427246, -1.525879
1035527, 0.447388, 0.446167, -0.759033, 2.563477, -0.610352, -0.671387
1035547, 0.492920, 0.396973, -0.766235, -0.488281, -0.305176, -3.723145
1035567, 0.507446, 0.464600, -0.751221, -1.831055, -0.732422, -5.187988
1035587, 0.520386, 0.478760, -0.743530, 2.014160, -0.244141, -1.281738
1035607, 0.505005, 0.462769, -0.723022, 1.953125, 1.098633, 2.197266
1035627, 0.515503, 0.435181, -0.733398, 2.197266, 0.488281, 1.403809
1035647, 0.499390, 0.450806, -0.761963, 1.159668, 0.976563, 0.793457
1035667, 0.491577, 0.458496, -0.773926, 1.892090, -0.244141, 0.915528
1035687, 0.467041, 0.443848, -0.781128, 1.708985, -0.244141, 1.403809
1035707, 0.471069, 0.432739, -0.776245, 1.098633, -0.854492, -0.061035
1035727, 0.478760, 0.434692, -0.781982, 0.671387, -0.915528, -1.953125
1035747, 0.489502, 0.437378, -0.771851, 0.427246, -0.732422, -2.563477
1035767, 0.504272, 0.441772, -0.758789, 0.244141, -1.098633, -2.929688
1035787, 0.505615, 0.453857, -0.745239, -0.366211, -0.854492, -2.197266
1035807, 0.517090, 0.460815, -0.742065, -0.061035, -0.671387, -0.732422
1035827, 0.507935, 0.451538, -0.746094, 0.610352, 0.061035, 1.220703
1035847, 0.499023, 0.441406, -0.756958, 0.305176, 0.671387, 1.647950
1035867, 0.488159, 0.439087, -0.767212, -0.854492, 0.671387, 0.854492
1035887, 0.484253, 0.446533, -0.767578, -0.366211, 0.244141, -0.244141
1035907, 0.483765, 0.453369, -0.775024, -0.122070, -0.488281, -0.610352
1035927, 0.493408, 0.450317, -0.760498, 0.000000, -0.488281, -0.610352
1035947, 0.502197, 0.447754, -0.752441, 0.122070, -0.732422, -0.793457
1035967, 0.504150, 0.445923, -0.751709, 0.061035, -0.488281, -0.183106
1035987, 0.498779, 0.455566, -0.760132, 0.183106, -0.488281, 0.000000
1036007, 0.490479, 0.453125, -0.759155, 0.549316, -0.488281, 0.244141
1036027, 0.493408, 0.447266, -0.760376, 0.183106, -0.549316, -0.183106
1036047, 0.492554, 0.452148, -0.760742, 0.244141, -1.098633, -0.671387
1036067, 0.493774, 0.451538, -0.761475, 0.732422, -1.342773, -0.915528
1036087, 0.492432, 0.444092, -0.759033, 0.488281, -1.037598, -1.220703
1036107, 0.498291, 0.450439, -0.757813, 0.366211, -1.220703, -1.525879
1036127, 0.498535, 0.453979, -0.757446, 0.732422, -0.976563, -0.915528
1036147, 0.496216, 0.447144, -0.757813, 0.610352, -0.793457, -0.610352
1036167, 0.494873, 0.446045, -0.758301, 0.305176, -0.732422, -0.732422
1036187, 0.490967, 0.449585, -0.761719, 0.183106, -0.732422, -0.488281
1036207, 0.492676, 0.453125, -0.760742, 0.122070, -0.488281, -0.244141
1036227, 0.492676, 0.454712, -0.759277, 0.488281, -0.793457, -0.671387
1036247, 0.493774, 0.454468, -0.760498, 0.732422, -0.915528, -0.671387
1036267, 0.494629, 0.448975, -0.756592, 0.732422, -1.159668, -0.976563
1036287, 0.493164, 0.447144, -0.759399, 0.610352, -1.037598, -1.037598
1036307, 0.494873, 0.445190, -0.760010, 0.244141, -1.098633, -1.281738
1036327, 0.490601, 0.447510, -0.758057, 0.427246, -0.793457, -1.647950
1036347, 0.492920, 0.444702, -0.761108, -0.122070, -0.610352, -2.014160
1036367, 0.496338, 0.459229, -0.759033, 0.122070, -0.549316, -1.586915
1036387, 0.493652, 0.460083, -0.758911, 0.671387, -0.671387, -0.976563
1036407, 0.492065, 0.454590, -0.760498, 0.488281, -0.610352, 0.061035
1036427, 0.494507, 0.451294, -0.756470, 0.366211, -0.671387, 0.122070
1036447, 0.490234, 0.448242, -0.753784, 0.549316, -0.732422, -0.305176
1036467, 0.498535, 0.451050, -0.768555, 0.000000, -0.610352, -0.488281
1036487, 0.485596, 0.454712, -0.756592, 0.427246, -0.244141, 0.244141
1036507, 0.495605, 0.447266, -0.757568, 0.793457, -0.671387, 0.000000
1036527, 0.488525, 0.452515, -0.761230, 0.122070, -0.366211, -0.305176
1036547, 0.489502, 0.449463, -0.760498, 0.244141, -0.488281, -0.732422
1036567, 0.495483, 0.451172, -0.757813, -0.122070, -0.366211, -0.610352
1036587, 0.492065, 0.459595, -0.763672, 0.061035, -0.610352, -0.305176
1036607, 0.478027, 0.452271, -0.765503, 0.122070, -1.281738, 0.427246
1036627, 0.495972, 0.451294, -0.762329, 0.000000, -0.976563, -0.610352
1036647, 0.490479, 0.439209, -0.752319, 0.061035, -1.159668, -1.831055
1036667, 0.474121, 0.449341, -0.757813, -0.732422, -0.366211, -1.708985
1036687, 0.469727, 0.453369, -0.751343, -0.366211, 7.873537, 1.586915
1036707, 0.526001, 0.452881, -0.761475, 0.183106, 5.004883, -1.098633
1036727, 0.508789, 0.448975, -0.756348, 0.305176, -0.732422, -4.211426
1036747, 0.490356, 0.445557, -0.757446, 0.000000, -0.671387, -4.821777
1036767, 0.489380, 0.453735, -0.763672, -0.488281, -0.610352, -4.638672
1036787, 0.481201, 0.458252, -0.753662, 0.305176, 3.051759, -2.136230
1036807, 0.518188, 0.451660, -0.757080, 0.122070, 1.403809, -2.807618
1036827, 0.514282, 0.452881, -0.728760, 1.586915, -2.319336, -4.394531
1036847, 0.479492, 0.436157, -0.766235, 3.479005, -1.220703, -3.967286
1036867, 0.499512, 0.450073, -0.764038, -0.488281, -1.647950, -4.394531
1036887, 0.468018, 0.453979, -0.765991, -0.793457, -0.976563, -4.028320
1036907, 0.465820, 0.438110, -0.771240, -0.854492, 1.586915, -2.685547
1036927, 0.477295, 0.427124, -0.780151, -3.601075, 5.249023, -4.760742
1036947, 0.491577, 0.457397, -0.755127, -4.455566, 5.371094, -5.981447
1036967, 0.516235, 0.475098, -0.768921, -4.028320, 3.906251, -9.338379
1036987, 0.483887, 0.463257, -0.741821, -8.117676, -0.671387, -11.535648
1037007, 0.520020, 0.446045, -0.708008, -14.892582, 1.403809, -6.286623
1037027, 0.565186, 0.488770, -0.677734, -20.568848, -0.061035, -1.525879
1037047, 0.538940, 0.509888, -0.674927, -18.249512, -3.723145, -2.624512
1037067, 0.511108, 0.480469, -0.717407, -24.841316, -2.380371, 5.920412
1037087, 0.527954, 0.533936, -0.692139, -28.869637, -4.272461, 12.451176
1037107, 0.540649, 0.471802, -0.712524, -27.893074, -9.582520, 11.779789
1037127, 0.545166, 0.483887, -0.724854, -33.386230, -27.954109, 6.042482
1037147, 0.484741, 0.556885, -0.715576, -25.756844, -29.846199, -1.586915
1037167, 0.448486, 0.558960, -0.759399, -14.099125, -32.592773, -13.854984
1037187, 0.349976, 0.518799, -0.795410, -10.375977, -33.447266, -20.751953
1037207, 0.272949, 0.517212, -0.759888, -9.643555, -12.146000, -20.568848
1037227, 0.376831, 0.530029, -0.762573, -8.178711, 2.563477, -18.615723
1037247, 0.424194, 0.606812, -0.747559, -2.746582, -0.366211, -20.019531
1037267, 0.430420, 0.622314, -0.731934, 2.014160, 2.624512, -11.352543
1037287, 0.437256, 0.578003, -0.687500, 5.065918, 6.591799, -6.896975
1037307, 0.464355, 0.554810, -0.699463, 5.432129, 8.605957, -3.051759
1037327, 0.489868, 0.578003, -0.716064, -0.610352, 4.028320, -1.037598
1037347, 0.494873, 0.578979, -0.709351, -0.671387, -0.671387, 1.403809
1037367, 0.443237, 0.521484, -0.722900, -1.403809, 0.122070, 0.915528
1037387, 0.419189, 0.494385, -0.738892, -6.835939, 0.976563, -2.441406
1037407, 0.412476, 0.527222, -0.735962, -10.253906, 0.549316, -8.972168
1037427, 0.410278, 0.546387, -0.727051, -12.268070, -1.220703, -13.549809
1037447, 0.405640, 0.523804, -0.716431, -15.014652, -0.305176, -16.601563
1037467, 0.372314, 0.688843, -0.651855, -5.981447, 9.277344, -5.554201
1037487, 0.494385, 0.559814, -0.738647, -2.380371, 11.779789, -2.258301
1037507, 0.464355, 0.607056, -0.671143, -2.380371, 1.770020, -1.281738
1037527, 0.467285, 0.621582, -0.702515, -1.037598, -2.502441, -1.586915
1037547, 0.423218, 0.601929, -0.693359, -0.305176, -3.112794, -0.610352
1037567, 0.426025, 0.573120, -0.704590, -0.244141, -1.464844, 0.671387
1037587, 0.481445, 0.567139, -0.702759, -1.220703, -4.333496, -0.244141
1037607, 0.452637, 0.586548, -0.713379, -1.770020, -8.728027, -1.831055
1037627, 0.412109, 0.580566, -0.689087, -0.793457, -8.117676, -0.366211
1037647, 0.446777, 0.573486, -0.700928, 0.549316, -7.629396, 2.380371
1037667, 0.422607, 0.577271, -0.701782, -0.854492, -10.314941, 4.943848
1037687, 0.440308, 0.586426, -0.696899, -5.249023, -2.319336, 11.840824
1037707, 0.460449, 0.588501, -0.669922, -7.080080, 1.586915, 15.136723
1037727, 0.461304, 0.606812, -0.678101, -7.324221, 2.441406, 14.953617
1037747, 0.446899, 0.610596, -0.691772, -6.958010, 4.699707, 11.901859
1037767, 0.442383, 0.590576, -0.705078, -5.676271, 0.000000, 9.094238
1037787, 0.419312, 0.579346, -0.722046, -6.164553, 0.366211, 7.812502
1037807, 0.385742, 0.597412, -0.707642, -3.784181, 5.249023, 4.272461
1037827, 0.447388, 0.629395, -0.708252, -5.920412, 9.765625, 2.624512
1037847, 0.474243, 0.664917, -0.701050, -10.253906, 8.972168, -2.990724
1037867, 0.482666, 0.665894, -0.696777, -10.742188, 1.586915, -15.930180
1037887, 0.419678, 0.618042, -0.733398, -11.291508, -5.249023, -23.071297
1037907, 0.445923, 0.575928, -0.731323, -14.404301, -14.160160, -24.292000
1037927, 0.390015, 0.595459, -0.701904, -13.366703, -15.991215, -22.521980
1037947, 0.376709, 0.587769, -0.713501, -13.671879, -8.728027, -22.705086
1037967, 0.432861, 0.612793, -0.665894, -12.512211, -11.291508, -25.146492
1037987, 0.533936, 0.621582, -0.629761, -6.286623, -3.479005, -33.813477
1038007, 0.369629, 0.604858, -0.720215, -11.840824, -17.517090, -28.198250
1038027, 0.381958, 0.580566, -0.630493, -10.864258, -15.136723, -20.202637
1038047, 0.370728, 0.616211, -0.625000, -7.446291, -9.033203, -5.187988
1038067, 0.422241, 0.617798, -0.618042, -5.981447, -6.958010, -3.051759
1038087, 0.420532, 0.616577, -0.641968, -1.525879, -9.460449, 2.197266
1038107, 0.442871, 0.656982, -0.671997, -0.915528, -15.319828, 0.244141
1038127, 0.401367, 0.668701, -0.643311, 0.793457, -24.841316, -1.831055
1038147, 0.420898, 0.662354, -0.668091, 2.258301, -32.592773, -2.014160
1038167, 0.499023, 0.656250, -0.673462, 3.112794, -55.236832, -4.882813
1038187, 0.329102, 0.610107, -0.717773, -5.432129, -65.734863, 2.258301
1038207, 0.288696, 0.645264, -0.601196, -22.644051, -20.874023, 43.884277
1038227, 0.482666, 0.664429, -0.589844, -22.094727, -3.417970, 51.025406
1038247, 0.425171, 0.669800, -0.678589, -12.878422, -24.658211, 30.151375
1038267, 0.306274, 0.671997, -0.736572, -8.422852, -35.034180, 15.441898
1038287, 0.205078, 0.674927, -0.776733, -3.234864, -41.625977, -0.488281
1038307, 0.009766, 0.661377, -0.789063, -0.305176, -31.250008, -6.591799
1038327, 0.029663, 0.659546, -0.750732, -5.310059, 12.756351, 10.681152
1038347, 0.312134, 0.661865, -0.691162, -7.019045, 31.066902, 18.005371
1038367, 0.425537, 0.665039, -0.654419, -4.760742, 29.907234, 14.282230
1038387, 0.477661, 0.668823, -0.642822, -2.136230, 25.512703, 8.117676
1038407, 0.542969, 0.673950, -0.634155, 1.525879, 6.591799, -0.183106
1038427, 0.430420, 0.692383, -0.663696, 4.760742, -11.657719, -5.310059
1038447, 0.278809, 0.817383, -0.616211, 19.592285, 7.019045, 3.784181
1038467, 0.483643, 1.304199, -0.507324, 81.115723, 14.160160, 41.625977
1038487, 0.605957, 0.533691, -0.769653, 92.895538, -7.812502, 42.663574
1038507, 0.362671, 0.158691, -0.735596, 35.583496, -37.353516, 25.878914
1038527, 0.345825, 0.283325, -0.660034, 11.962894, -37.170410, 1.098633
1038547, 0.318726, 0.462891, -0.830811, 12.084965, -38.513184, -23.864754
1038567, 0.134155, 0.502808, -0.875732, 1.953125, -22.338875, -20.141602
1038587, 0.153931, 0.559692, -0.809692, -0.305176, 1.464844, -5.554201
1038607, 0.308105, 0.583130, -0.805908, -1.220703, 7.995607, -0.854492
1038627, 0.357788, 0.584961, -0.705322, 0.305176, 10.314941, -1.220703
1038647, 0.405273, 0.585449, -0.706665, 0.732422, 14.221195, 0.305176
1038667, 0.447021, 0.610107, -0.710938, 3.295899, 8.911133, 0.305176
