timestamp,ax,ay,az,gx,gy,gz
1198495, 0.409546, 0.114258, -0.734497, 37.597656, -33.081055, -28.198250
1198515, 0.366699, 0.200928, -0.719360, 8.239746, -14.953617, -41.320801
1198535, 0.401367, 0.301392, -0.717163, -11.596684, 12.207035, -38.818359
1198555, 0.476440, 0.543457, -0.773071, -23.254402, 50.170914, -16.845703
1198575, 0.653687, 0.722290, -0.698486, -18.432617, 70.983887, 16.357422
1198595, 0.845459, 0.586426, -0.612549, -3.662110, 46.936050, 22.338875
1198615, 0.746338, 0.413818, -0.652832, -0.183106, 0.610352, 4.333496
1198635, 0.467285, 0.386475, -0.708862, -6.896975, -7.751467, -5.004883
1198655, 0.474854, 0.455933, -0.754272, -10.314941, -0.244141, -1.586915
1198675, 0.489868, 0.533447, -0.795044, -7.690432, 0.488281, -0.305176
1198695, 0.494995, 0.538330, -0.791138, -1.281738, 0.854492, 1.220703
1198715, 0.494141, 0.448242, -0.751465, 1.831055, -0.427246, -1.098633
1198735, 0.528931, 0.434814, -0.722900, -0.488281, 0.549316, -2.319336
1198755, 0.541260, 0.443115, -0.711304, -1.037598, -0.427246, -3.234864
1198775, 0.554443, 0.459473, -0.719849, -1.037598, 0.366211, -3.051759
1198795, 0.552734, 0.465820, -0.711060, -1.586915, -1.098633, -2.746582
1198815, 0.512939, 0.470459, -0.715210, -1.525879, 3.234864, -0.122070
1198835, 0.552979, 0.477539, -0.722046, -1.159668, -1.037598, -0.427246
1198855, 0.526489, 0.476563, -0.725220, -0.122070, -1.281738, -0.183106
1198875, 0.527710, 0.467773, -0.730835, -0.610352, -0.793457, 0.610352
1198895, 0.519653, 0.469238, -0.725708, -0.122070, -0.793457, 1.098633
1198915, 0.528442, 0.462158, -0.729004, -0.610352, 0.488281, 0.488281
1198935, 0.536255, 0.469604, -0.717651, -0.244141, 0.671387, 0.488281
1198955, 0.537354, 0.462646, -0.720215, 0.427246, 0.122070, 0.488281
1198975, 0.530151, 0.458618, -0.724976, -0.244141, 0.549316, 0.366211
1198995, 0.537354, 0.462036, -0.716675, -0.366211, 0.549316, 0.000000
1199015, 0.536255, 0.463745, -0.720947, 0.061035, -0.122070, -0.061035
1199035, 0.529419, 0.464844, -0.728760, -0.366211, 0.244141, 0.427246
1199055, 0.516479, 0.461670, -0.723145, -0.793457, 0.061035, 0.549316
1199075, 0.471680, 0.459106, -0.717529, -0.854492, 11.962894, 2.868653
1199095, 0.552368, 0.453979, -0.728638, -1.647950, 11.779789, 2.441406
1199115, 0.572632, 0.461182, -0.717041, -2.075195, 6.469728, -0.549316
1199135, 0.547974, 0.469238, -0.707520, -1.281738, 2.807618, -2.929688
1199155, 0.555786, 0.479370, -0.712646, -0.244141, 1.831055, -2.807618
1199175, 0.538086, 0.473267, -0.703003, -0.244141, 3.295899, -0.976563
1199195, 0.566162, 0.473511, -0.701660, 0.244141, 5.065918, 0.549316
1199215, 0.571289, 0.466919, -0.706299, 0.305176, -0.854492, -1.953125
1199235, 0.538818, 0.465576, -0.708740, 0.549316, -0.122070, -0.366211
1199255, 0.552490, 0.460693, -0.712158, -0.061035, -0.366211, -0.671387
1199275, 0.544800, 0.466064, -0.709961, 0.122070, -0.976563, -2.380371
1199295, 0.535522, 0.468750, -0.714966, -0.366211, -0.671387, -2.136230
1199315, 0.544189, 0.482300, -0.713379, -0.610352, -0.366211, -0.854492
1199335, 0.549683, 0.471191, -0.704590, 0.732422, -0.854492, -1.220703
1199355, 0.542114, 0.459961, -0.706665, 0.671387, -0.915528, -2.136230
1199375, 0.543213, 0.465454, -0.712036, -0.122070, -1.098633, -2.929688
1199395, 0.539307, 0.474365, -0.710449, -0.183106, -0.122070, -2.807618
1199415, 0.551392, 0.475708, -0.706543, 0.244141, -0.610352, -2.502441
1199435, 0.547241, 0.468872, -0.701538, 0.610352, -0.671387, -2.136230
1199455, 0.547119, 0.474976, -0.707886, 0.183106, -1.159668, -2.441406
1199475, 0.535645, 0.485962, -0.706421, 0.732422, -1.037598, -1.159668
1199495, 0.544434, 0.460938, -0.707153, 0.793457, -0.793457, -1.464844
1199515, 0.534912, 0.469360, -0.715576, 0.000000, -0.976563, -2.807618
1199535, 0.538696, 0.475952, -0.708740, 0.244141, -1.281738, -2.319336
1199555, 0.538696, 0.487793, -0.717896, 0.732422, -0.793457, -1.586915
1199575, 0.543701, 0.480103, -0.706421, 1.586915, -1.159668, -1.159668
1199595, 0.539795, 0.461304, -0.703979, 1.342773, -1.037598, -1.647950
1199615, 0.539307, 0.469116, -0.707642, 0.610352, -0.671387, -2.075195
1199635, 0.542358, 0.467285, -0.708008, 0.549316, -0.732422, -2.258301
1199655, 0.534180, 0.462158, -0.710083, 0.671387, -1.037598, -4.333496
1199676, 0.532959, 0.457764, -0.709229, 0.671387, -1.342773, -5.920412
1199696, 0.537354, 0.461304, -0.711548, 0.000000, -0.732422, -6.652834
1199716, 0.528809, 0.462036, -0.710571, 0.427246, -2.441406, -9.033203
1199736, 0.525879, 0.480469, -0.728149, 0.793457, 0.366211, -8.666992
1199756, 0.533691, 0.500000, -0.724609, 0.854492, -0.427246, -8.544922
1199776, 0.529663, 0.467163, -0.715332, 1.525879, 1.281738, -7.751467
1199796, 0.526611, 0.434326, -0.713379, 0.244141, -0.732422, -9.887695
1199816, 0.502686, 0.417725, -0.702148, -0.549316, 1.586915, -12.817387
1199836, 0.466675, 0.414307, -0.701172, 2.014160, 19.531250, -20.690918
1199856, 0.458374, 0.417847, -0.713745, -1.342773, 25.756844, -30.090340
1199876, 0.489502, 0.543213, -0.737427, -1.831055, 28.137215, -33.447266
1199896, 0.538940, 0.606689, -0.730957, 2.319336, 30.212410, -26.733406
1199916, 0.541138, 0.549927, -0.696899, 2.075195, 26.000984, -18.005371
1199936, 0.437134, 0.523315, -0.600830, 6.958010, -6.835939, -1.342773
1199956, 0.616455, 0.499146, -0.733765, -4.760742, 42.175293, -13.305668
1199976, 0.558350, 0.471069, -0.603027, -7.385256, 23.986824, -20.507813
1199996, 0.583496, 0.548462, -0.677124, -5.859377, 19.836426, -20.263672
1200016, 0.546997, 0.650391, -0.614502, -11.535648, 6.530764, -19.836426
1200036, 0.624878, 0.696655, -0.626709, 5.249023, 20.751953, 1.037598
1200056, 0.634644, 0.543823, -0.660400, -2.319336, -1.342773, -3.723145
1200076, 0.549438, 0.554321, -0.578857, -0.854492, -3.906251, -4.699707
1200096, 0.579346, 0.522705, -0.660522, 1.281738, -7.995607, -6.713869
1200116, 0.507324, 0.515503, -0.664795, 3.112794, -5.371094, -3.784181
1200136, 0.517090, 0.505127, -0.683594, 1.770020, -3.784181, 4.272461
1200156, 0.530884, 0.520142, -0.659668, -3.906251, -2.624512, 13.488773
1200176, 0.560913, 0.555420, -0.617920, -12.573246, 5.676271, 23.986824
1200196, 0.609619, 0.572021, -0.611084, -17.028809, 2.929688, 26.123055
1200216, 0.578003, 0.580811, -0.619873, -16.601563, 2.075195, 23.193367
1200236, 0.546143, 0.591553, -0.647095, -13.122562, 0.183106, 15.258793
1200256, 0.531860, 0.579346, -0.670898, -10.864258, 3.356935, 8.483887
1200276, 0.536377, 0.562988, -0.678101, -10.742188, -0.854492, 4.211426
1200296, 0.537231, 0.570313, -0.659546, -14.282230, 2.319336, 5.004883
1200316, 0.567627, 0.573242, -0.632935, -15.197758, 2.563477, 2.685547
1200336, 0.565552, 0.578857, -0.625732, -13.366703, 1.770020, -0.915528
1200356, 0.571899, 0.559814, -0.623413, -10.681152, -1.037598, -4.028320
1200376, 0.552979, 0.580933, -0.657471, -11.535648, 1.098633, -8.300781
1200396, 0.576782, 0.578491, -0.655640, -10.803223, -0.305176, -14.221195
1200416, 0.582642, 0.559448, -0.618408, -10.681152, -3.601075, -18.066406
1200436, 0.529785, 0.593384, -0.641113, -7.995607, -7.080080, -18.981934
1200456, 0.538940, 0.587646, -0.650269, -8.605957, -9.704590, -21.057129
1200476, 0.545288, 0.560913, -0.606201, -6.835939, -10.253906, -21.972656
1200496, 0.575317, 0.562744, -0.604004, -6.347658, -12.939457, -19.653320
1200516, 0.577759, 0.603394, -0.624390, -5.004883, -18.249512, -21.301270
1200536, 0.520020, 0.579224, -0.565430, -3.906251, -20.446777, -22.399910
1200556, 0.508057, 0.585205, -0.623413, -0.122070, -16.906738, -22.155769
1200576, 0.501099, 0.600464, -0.588379, -1.281738, -11.535648, -15.747074
1200596, 0.543701, 0.631958, -0.578735, -2.014160, -9.033203, -14.831547
1200616, 0.500366, 0.572754, -0.664795, -0.305176, -18.371582, -12.268070
1200636, 0.477051, 0.610474, -0.585693, -2.014160, -13.671879, -10.559082
1200656, 0.498047, 0.613281, -0.622803, -0.366211, -12.207035, -7.385256
1200676, 0.488403, 0.607056, -0.617432, -0.610352, -12.634281, -5.432129
1200696, 0.466675, 0.611084, -0.623779, 0.488281, -12.756351, -2.258301
1200716, 0.473633, 0.617798, -0.634644, 0.732422, -11.657719, 0.122070
1200736, 0.453369, 0.629517, -0.644775, 0.305176, -7.995607, 0.244141
1200756, 0.455566, 0.630005, -0.637085, 0.183106, -5.554201, 0.732422
1200776, 0.456543, 0.630005, -0.642700, 0.549316, -2.624512, 1.403809
1200796, 0.513428, 0.618530, -0.651245, -0.305176, -5.615236, 1.037598
1200816, 0.539185, 0.630859, -0.629272, -0.732422, -18.005371, -1.281738
1200836, 0.578491, 0.638306, -0.610840, 0.976563, -39.306641, -4.089355
1200856, 0.547241, 0.639038, -0.609253, 4.089355, -59.692398, -7.995607
1200876, 0.374268, 0.589600, -0.716553, -5.432129, -64.758301, -0.244141
1200896, 0.430176, 0.604248, -0.598755, -25.939949, -30.456551, 29.724129
1200916, 0.421875, 0.614258, -0.557739, -22.277840, -9.155273, 36.499023
1200936, 0.548706, 0.663818, -0.642212, -16.540527, -14.709476, 28.747566
1200956, 0.477173, 0.648804, -0.708252, -9.765625, -36.254883, 9.216309
1200976, 0.317017, 0.644043, -0.702515, -8.789063, -31.433113, 6.469728
1200996, 0.276489, 0.654175, -0.696045, -5.737307, -18.005371, 5.493164
1201016, 0.274292, 0.643555, -0.732544, -2.380371, -8.666992, 3.295899
1201036, 0.378418, 0.635864, -0.692017, -3.173829, -3.479005, 4.333496
1201056, 0.422241, 0.638306, -0.667114, -4.028320, -8.239746, 6.164553
1201076, 0.406372, 0.646118, -0.658813, -2.807618, -6.286623, 5.310059
1201096, 0.414917, 0.647217, -0.657593, -0.122070, -2.929688, 1.892090
1201116, 0.399536, 0.640625, -0.675415, 1.220703, -0.244141, -0.183106
1201136, 0.396729, 0.638062, -0.673462, 1.037598, 4.455566, -0.366211
1201156, 0.408325, 0.637451, -0.670166, 1.342773, 10.864258, 0.183106
1201176, 0.434448, 0.638184, -0.670410, 1.464844, 8.666992, 0.122070
1201196, 0.444214, 0.646484, -0.672119, 1.403809, 3.234864, 0.061035
1201216, 0.438599, 0.677979, -0.657349, 3.723145, -0.793457, -0.061035
1201236, 0.399292, 0.682495, -0.598267, 12.390141, 9.338379, 3.845216
1201256, 0.463135, 0.936157, -0.568359, 40.344238, 32.531738, 25.390633
1201276, 0.623291, 0.959229, -0.651733, 81.604004, 19.104004, 40.954590
1201296, 0.501343, 0.531006, -0.686646, 76.904297, 7.629396, 51.269547
1201316, 0.479980, 0.388550, -0.697021, 56.945816, -8.056641, 49.316422
1201336, 0.455322, 0.392334, -0.741089, 41.442871, -21.057129, 36.621094
1201356, 0.391846, 0.456299, -0.805298, 39.367676, -15.747074, 20.019531
1201376, 0.344238, 0.405273, -0.888184, 28.442390, -4.699707, 14.709476
1201396, 0.362427, 0.422363, -0.862183, 15.502934, 12.146000, 15.625004
1201416, 0.481812, 0.511353, -0.819946, 15.136723, 23.559578, 18.310547
1201436, 0.462646, 0.472656, -0.826904, 15.930180, 27.465828, 18.188477
