timestamp,ax,ay,az,gx,gy,gz
318394, 0.287720, 0.874756, -0.402710, 2.197266, -1.098633, -1.098633
318414, 0.285034, 0.873535, -0.399170, 2.807618, -1.403809, -0.244141
318434, 0.300903, 0.866577, -0.419067, 2.136230, -0.549316, -0.122070
318454, 0.302856, 0.869873, -0.413330, 1.159668, -0.427246, -0.366211
318474, 0.305908, 0.870483, -0.406616, 1.037598, -1.281738, -0.854492
318494, 0.298462, 0.869263, -0.413818, 0.732422, -0.854492, -1.220703
318514, 0.284912, 0.868164, -0.414673, -0.427246, -0.610352, -0.366211
318534, 0.300171, 0.871948, -0.410889, -1.098633, -0.793457, 0.244141
318554, 0.302612, 0.873535, -0.396973, -0.854492, -1.342773, -0.366211
318574, 0.292725, 0.876465, -0.389526, 0.427246, -1.403809, -0.244141
318594, 0.294312, 0.871826, -0.402832, 1.281738, -0.610352, 0.061035
318614, 0.308838, 0.869629, -0.410400, 1.037598, -0.549316, -0.427246
318634, 0.303833, 0.873291, -0.399170, 1.220703, -1.342773, -1.098633
318654, 0.285767, 0.870239, -0.413696, 1.342773, -0.366211, -1.098633
318674, 0.290771, 0.868286, -0.414917, 0.488281, 0.793457, -0.244141
318694, 0.312012, 0.873047, -0.401367, 0.549316, -0.915528, -0.976563
318714, 0.297729, 0.872192, -0.403687, 1.037598, -1.831055, -1.159668
318734, 0.277710, 0.874512, -0.401611, 1.098633, -0.488281, -0.793457
318754, 0.278076, 0.872925, -0.398438, 2.258301, 1.281738, 0.732422
318774, 0.297974, 0.867554, -0.420410, 1.953125, 1.647950, 1.220703
318794, 0.312744, 0.866821, -0.416992, 0.854492, 1.098633, 0.793457
318814, 0.307983, 0.869873, -0.406128, 0.610352, -0.183106, -0.122070
318834, 0.300903, 0.870117, -0.402710, 1.098633, 0.122070, -0.305176
318854, 0.299072, 0.872437, -0.403076, 1.281738, 0.061035, -0.610352
318874, 0.292603, 0.871094, -0.400024, 2.258301, 0.122070, 0.061035
318894, 0.300171, 0.867065, -0.416626, 2.136230, 0.427246, -0.305176
318914, 0.288574, 0.868408, -0.406494, 1.831055, 0.366211, 0.488281
318934, 0.298462, 0.866821, -0.414795, 1.831055, 1.831055, 0.732422
318954, 0.308105, 0.866333, -0.413086, 1.525879, 1.525879, 0.671387
318974, 0.311646, 0.869751, -0.406738, 1.586915, -0.732422, 0.610352
318994, 0.312134, 0.867432, -0.411621, 1.708985, -0.732422, -0.488281
319014, 0.297852, 0.865967, -0.415405, 1.525879, -0.244141, -0.610352
319034, 0.302246, 0.864746, -0.418945, 1.037598, 0.732422, -0.427246
319054, 0.308350, 0.865967, -0.415771, 0.488281, 0.427246, -0.549316
319074, 0.305908, 0.866577, -0.412964, 0.122070, -0.488281, -1.464844
319094, 0.293091, 0.868652, -0.402710, 0.854492, -1.525879, -0.732422
319114, 0.294067, 0.867798, -0.415283, 0.793457, -0.854492, -0.061035
319134, 0.298828, 0.866821, -0.409912, 0.915528, -0.244141, 0.061035
319154, 0.300659, 0.865845, -0.416626, 0.793457, 0.000000, 0.427246
319174, 0.307983, 0.865234, -0.415039, 0.366211, 0.244141, 0.122070
319194, 0.306152, 0.867065, -0.409058, 0.305176, -0.122070, -0.122070
319214, 0.302856, 0.867188, -0.408203, 0.732422, -0.244141, -0.122070
319234, 0.307251, 0.865479, -0.414063, 0.671387, -0.793457, -0.061035
319254, 0.303223, 0.865723, -0.412231, 0.549316, -0.976563, -0.244141
319274, 0.302368, 0.865723, -0.412842, 0.549316, -0.427246, 0.122070
319294, 0.312012, 0.868652, -0.406372, 0.671387, -0.305176, -0.122070
319314, 0.310059, 0.868408, -0.402466, 1.586915, -1.525879, -0.671387
319334, 0.293823, 0.864258, -0.421021, 1.525879, -1.586915, -0.244141
319354, 0.293213, 0.862183, -0.426758, 0.488281, -0.305176, 0.488281
319374, 0.308350, 0.863525, -0.423096, -0.610352, 0.061035, 0.793457
319394, 0.318970, 0.865723, -0.409546, -0.854492, -0.549316, 0.061035
319414, 0.315430, 0.867554, -0.400635, -0.183106, -1.770020, -0.732422
319434, 0.295044, 0.867065, -0.411133, 0.427246, -0.976563, -0.854492
319454, 0.306641, 0.863159, -0.421631, -0.427246, 0.061035, 0.122070
319474, 0.329712, 0.865234, -0.412476, -0.976563, -1.708985, -0.793457
319494, 0.311523, 0.870239, -0.398926, -0.305176, -3.173829, -2.014160
319514, 0.287842, 0.870728, -0.405518, 0.671387, -2.014160, -1.403809
319534, 0.301392, 0.866455, -0.414063, 0.915528, -1.464844, -0.610352
319554, 0.289673, 0.868530, -0.414307, 0.732422, -2.319336, -0.183106
319574, 0.257324, 0.873535, -0.406372, 1.037598, -1.281738, 2.441406
319594, 0.276367, 0.873413, -0.398560, 1.953125, 2.807618, 5.249023
319614, 0.313965, 0.889282, -0.341431, 6.164553, 2.075195, 6.591799
319634, 0.312256, 0.897827, -0.348633, 12.390141, 1.159668, 7.080080
319654, 0.274902, 0.882202, -0.362427, 21.972656, 5.371094, 7.568361
319674, 0.339478, 0.889282, -0.351318, 32.653809, -0.854492, 4.760742
319694, 0.339966, 0.818604, -0.525879, 32.836914, 7.385256, -2.380371
319714, 0.310303, 0.820679, -0.632813, 17.028809, 8.911133, -4.699707
319734, 0.290405, 0.846191, -0.508301, 7.568361, 10.009766, -5.249023
319754, 0.281250, 0.930908, -0.409424, 12.634281, 5.432129, -10.314941
319774, 0.232910, 0.914063, -0.413086, 22.827156, 10.437012, -11.535648
319794, 0.273926, 0.871338, -0.495972, 24.475105, 18.188477, -15.869144
319814, 0.310425, 0.736328, -0.526367, 18.188477, 24.902351, -28.564461
319834, 0.275635, 0.755249, -0.531128, -0.854492, 27.099617, -41.564941
319854, 0.208252, 0.815186, -0.504761, -8.605957, 29.907234, -35.400391
319874, 0.245117, 0.833130, -0.483643, -14.892582, 42.297363, -29.357918
319894, 0.299561, 0.817871, -0.438721, -15.014652, 42.480469, -23.498543
319914, 0.339844, 0.763916, -0.468140, -18.310547, 41.320801, -23.437508
319934, 0.304077, 0.859741, -0.505371, -25.573738, 39.367676, -21.972656
319954, 0.298340, 0.933594, -0.428223, -24.719246, 33.142090, -2.563477
319974, 0.417603, 0.829346, -0.341797, -17.333984, 30.639656, -3.723145
319994, 0.434937, 0.828613, -0.443726, -20.080566, 29.235847, -3.051759
320014, 0.591187, 0.840942, -0.488281, -33.813477, -15.563969, -11.779789
320034, 0.397339, 0.880859, -0.151489, -12.146000, -37.658691, -12.207035
320054, 0.204712, 0.880249, -0.200195, 12.939457, -31.921394, 1.159668
320074, 0.231323, 0.867432, -0.380859, 18.798828, -13.671879, 10.803223
320094, 0.401367, 0.843018, -0.493164, 7.751467, -12.329105, 13.977055
320114, 0.474854, 0.854980, -0.431519, -4.821777, -26.062019, 11.535648
320134, 0.463135, 0.867554, -0.347778, -10.498047, -49.316422, 11.108402
320154, 0.383057, 0.871460, -0.313354, -15.869144, -57.678238, 15.930180
320174, 0.297607, 0.921143, -0.290649, -21.911621, -52.673355, 21.301270
320194, 0.284302, 0.935791, -0.257690, -21.667480, -51.696793, 20.629883
320214, 0.300781, 0.940552, -0.244141, -9.155273, -49.377457, 12.939457
320234, 0.235474, 0.941650, -0.295410, -3.540040, -47.241226, 7.934572
320254, 0.229126, 0.950073, -0.304321, 0.549316, -52.490250, 3.723145
320274, 0.067261, 0.926880, -0.337891, 2.807618, -43.334961, 4.638672
320294, 0.029419, 0.947021, -0.366943, 2.014160, -31.860359, 11.535648
320314, 0.059204, 0.923218, -0.407715, 0.000000, -18.554688, 13.427738
320334, 0.097168, 0.928833, -0.402100, -1.220703, -9.826660, 13.427738
320354, 0.085449, 0.914917, -0.408325, 2.929688, -1.831055, 12.756351
320374, 0.136475, 0.893066, -0.474487, 2.746582, 3.479005, 14.953617
320394, 0.194946, 0.891479, -0.480591, -6.896975, 4.272461, 12.084965
320414, 0.198486, 0.883057, -0.456055, -12.817387, 2.319336, 11.352543
320434, 0.202026, 0.902222, -0.428589, -15.380863, 6.408693, 10.986328
320454, 0.235962, 0.900146, -0.405518, -14.892582, 8.728027, 8.911133
320474, 0.304565, 0.933350, -0.408203, -15.747074, 8.300781, 0.366211
320494, 0.240723, 0.912354, -0.299438, -10.253906, 0.793457, -6.225588
320514, 0.192627, 0.897949, -0.298218, 0.427246, 3.356935, 0.366211
320534, 0.265991, 0.899780, -0.413696, 0.610352, 10.986328, 2.136230
320554, 0.305176, 0.889648, -0.409912, -6.225588, 12.084965, -1.708985
320574, 0.293823, 0.916016, -0.357544, -6.164553, 5.615236, -6.958010
320594, 0.306763, 0.904907, -0.338745, -2.563477, 11.718754, -15.625004
320614, 0.342407, 0.886353, -0.325806, 0.915528, 11.291508, -17.211914
320634, 0.343872, 0.904053, -0.354126, 4.394531, 1.953125, -21.301270
320654, 0.264893, 0.881836, -0.379639, 4.272461, 0.793457, -25.146492
320674, 0.169189, 0.894287, -0.320923, 6.347658, 11.230473, -17.578125
320694, 0.273926, 0.888794, -0.345825, 9.765625, 20.141602, -10.742188
320714, 0.320679, 0.859741, -0.391602, 7.141115, 27.587898, -7.568361
320734, 0.368530, 0.909790, -0.407593, 2.990724, 16.357422, -7.568361
320754, 0.303467, 0.878906, -0.407959, -1.708985, 20.935059, -17.822266
320774, 0.375244, 0.849365, -0.359375, 2.380371, 23.071297, -23.803719
320794, 0.382935, 0.817749, -0.338379, 7.629396, 15.136723, -11.230473
320814, 0.404175, 0.847534, -0.385498, 11.230473, 5.065918, -5.554201
320834, 0.373779, 0.864136, -0.439453, 7.812502, 1.586915, -4.760742
320854, 0.347534, 0.853638, -0.418335, 3.784181, 7.324221, -4.577637
320874, 0.405151, 0.828735, -0.387695, 2.929688, 9.765625, -1.892090
320894, 0.453735, 0.855591, -0.400513, 1.831055, 1.708985, 4.455566
320914, 0.530884, 0.854126, -0.517212, -6.347658, -11.291508, -11.962894
320934, 0.459473, 0.876709, -0.434692, -17.272949, -31.616219, -27.282722
320954, 0.374146, 0.901733, -0.345215, -18.371582, -44.128418, -37.231445
320974, 0.299438, 0.906616, -0.281250, -13.366703, -51.635757, -46.813980
320994, 0.050415, 0.902222, -0.179565, -3.112794, -24.108894, -27.465828
321014, 0.078491, 0.920776, -0.213379, 4.882813, -9.094238, 3.906251
321034, 0.133789, 0.891235, -0.316040, 3.112794, 4.760742, 31.555183
321054, 0.286621, 0.896240, -0.369873, -10.620117, 12.268070, 45.959488
321074, 0.459351, 0.929199, -0.298096, -19.165039, 5.004883, 36.193848
321094, 0.503296, 0.964722, -0.218994, -14.709476, -13.244633, 15.136723
321114, 0.432617, 0.956055, -0.249146, -8.422852, -27.648933, -8.972168
321134, 0.252808, 0.952026, -0.268921, -3.723145, -34.423828, -22.644051
321154, 0.101807, 0.929321, -0.302002, -4.577637, -28.869637, -19.653320
321174, 0.069580, 0.918457, -0.306885, -11.230473, -17.272949, -3.845216
321194, 0.122437, 0.961670, -0.237671, -7.019045, -18.432617, 6.591799
321214, 0.131348, 0.950928, -0.301880, 1.586915, -17.150879, 6.835939
321234, 0.131348, 0.920166, -0.384766, 3.784181, -16.174316, 6.103518
321254, 0.154541, 0.932617, -0.383545, 6.896975, -25.695808, 3.479005
321274, 0.132202, 0.917114, -0.405518, 15.502934, -32.836914, -4.272461
321294, 0.063599, 0.898926, -0.462036, 21.240234, -33.142090, -6.713869
321314, 0.041016, 0.900391, -0.509399, 25.085457, -30.212410, -11.291508
321334, -0.005981, 0.877075, -0.583984, 17.211914, -26.306160, -12.695316
321354, 0.017822, 0.888916, -0.501953, -0.610352, -16.479492, -1.342773
321374, 0.047241, 0.900513, -0.429321, -6.408693, -8.300781, 7.629396
