timestamp,ax,ay,az,gx,gy,gz
136356, 0.352417, 0.865234, -0.388306, -1.037598, -0.244141, 0.671387
136376, 0.337524, 0.867188, -0.386719, -1.098633, -1.770020, 0.061035
136396, 0.333984, 0.870239, -0.379883, -0.854492, -2.380371, 0.488281
136416, 0.339722, 0.871582, -0.376709, 0.122070, -2.746582, 0.488281
136436, 0.329102, 0.869995, -0.387085, 0.427246, -1.770020, 0.549316
136456, 0.327759, 0.870605, -0.381592, 0.915528, -0.732422, 0.976563
136476, 0.326172, 0.869019, -0.385498, 1.403809, 1.220703, 1.647950
136496, 0.342896, 0.866211, -0.395020, 1.342773, 1.953125, 1.892090
136516, 0.350586, 0.862183, -0.396240, 0.427246, 0.305176, 1.220703
136536, 0.339355, 0.867676, -0.390381, -0.122070, -0.305176, 1.342773
136556, 0.346558, 0.866699, -0.386841, 0.122070, 0.244141, 0.671387
136576, 0.348022, 0.866943, -0.382813, 0.366211, 0.915528, 0.366211
136596, 0.350708, 0.865601, -0.391113, 0.366211, 0.183106, -0.183106
136616, 0.348755, 0.865479, -0.392334, -0.244141, -0.793457, -0.854492
136636, 0.335205, 0.867920, -0.388428, -0.427246, -0.976563, -0.671387
136656, 0.335205, 0.868164, -0.386108, -0.610352, -0.854492, -0.122070
136676, 0.338745, 0.869751, -0.377930, 0.000000, -1.220703, 0.244141
136696, 0.340698, 0.867432, -0.387207, 0.305176, -0.427246, 0.183106
136716, 0.341187, 0.868042, -0.385132, 0.366211, -0.305176, 0.000000
136736, 0.347900, 0.865479, -0.390747, 0.000000, -0.122070, 0.122070
136756, 0.325684, 0.870361, -0.381348, 0.488281, -1.708985, 0.061035
136776, 0.330566, 0.869507, -0.379761, 1.159668, -0.549316, 1.159668
136796, 0.347900, 0.866943, -0.387695, 1.403809, -1.037598, 1.281738
136816, 0.339111, 0.861938, -0.408813, 0.183106, -0.244141, 0.549316
136836, 0.329468, 0.868896, -0.380859, -0.488281, 0.549316, 1.403809
136856, 0.343628, 0.869141, -0.375977, 0.488281, 0.183106, 2.075195
136876, 0.337769, 0.865845, -0.386353, 0.610352, -1.525879, 2.807618
136896, 0.351685, 0.868652, -0.378906, 1.159668, 0.244141, 2.258301
136916, 0.356567, 0.864746, -0.386963, 1.281738, -1.220703, 1.647950
136936, 0.346802, 0.865356, -0.386719, 1.464844, -0.305176, 0.976563
136956, 0.348389, 0.864014, -0.392334, 0.671387, -0.244141, 0.732422
136976, 0.342896, 0.864136, -0.389893, 0.549316, 0.305176, 0.610352
136996, 0.345703, 0.864258, -0.386475, 0.305176, 0.915528, 0.854492
137016, 0.363159, 0.863647, -0.384888, 0.488281, -0.244141, 0.549316
137036, 0.360474, 0.863770, -0.386475, 0.305176, -1.708985, -0.549316
137056, 0.348633, 0.868286, -0.378418, 0.793457, -2.319336, -0.915528
137076, 0.336548, 0.867676, -0.381226, 1.464844, -2.380371, -0.366211
137096, 0.330688, 0.864136, -0.388794, 1.770020, -1.708985, 0.549316
137116, 0.350952, 0.864624, -0.390381, 1.586915, -0.732422, 1.098633
137136, 0.343994, 0.861084, -0.402222, 0.854492, 0.488281, 0.000000
137156, 0.338379, 0.872681, -0.388550, 0.366211, 0.549316, 0.488281
137176, 0.278809, 0.884644, -0.389893, 1.281738, 1.770020, 3.723145
137196, 0.248901, 0.882690, -0.403809, 1.770020, 6.530764, 10.803223
137216, 0.317383, 0.911255, -0.413696, 0.427246, 12.329105, 16.052246
137236, 0.464600, 0.938232, -0.403198, 6.530764, -1.220703, -3.845216
137256, 0.332275, 1.067505, -0.358765, 27.893074, -17.028809, -16.052246
137276, 0.159058, 1.057495, -0.448120, 50.231949, -18.188477, -16.418457
137296, 0.172852, 0.942749, -0.578491, 66.650391, -3.906251, -22.888191
137316, 0.143188, 0.871826, -0.720825, 68.298340, 7.812502, -35.705566
137336, 0.136963, 0.779297, -0.727783, 55.786148, 11.047363, -42.297363
137356, 0.136963, 0.719604, -0.637939, 52.856461, 18.554688, -46.936050
137376, 0.152710, 0.639648, -0.582397, 53.039566, 29.174812, -51.208511
137396, 0.178223, 0.572876, -0.571899, 47.485367, 38.330078, -54.382339
137416, 0.178833, 0.545410, -0.580566, 35.095215, 39.855957, -53.527847
137436, 0.182617, 0.622437, -0.547974, 20.202637, 42.724609, -48.645035
137456, 0.242310, 0.711182, -0.469360, 13.732914, 46.508804, -40.222168
137476, 0.328491, 0.725220, -0.418457, 14.587406, 49.987808, -34.057617
137496, 0.347412, 0.787720, -0.448364, 9.765625, 49.865738, -35.644531
137516, 0.507324, 0.947876, -0.372925, -10.803223, 54.809586, -30.151375
137536, 0.678955, 0.941284, -0.274536, -8.178711, 38.330078, -53.527847
137556, 0.249390, 0.923218, -0.399292, -26.977547, 22.216805, -30.151375
137576, 0.311890, 0.877930, -0.313843, -44.982925, 39.916992, -0.183106
137596, 0.433960, 1.060059, -0.385742, -48.767105, 41.625977, 19.836426
137616, 0.552734, 1.096558, -0.232544, -32.653809, 13.793949, 7.995607
137636, 0.575684, 0.931885, -0.243408, -13.305668, -9.643555, -16.723633
137656, 0.298218, 0.907227, -0.327881, -1.892090, -23.742683, -27.954109
137676, 0.093506, 0.885132, -0.379272, 6.835939, -19.653320, -20.874023
137696, 0.114502, 0.870117, -0.470093, 7.141115, -10.070801, -5.493164
137716, 0.226196, 0.813721, -0.495483, 4.516602, -8.605957, -1.525879
137736, 0.262451, 0.890625, -0.551880, -1.586915, -7.568361, -3.662110
137756, 0.243530, 0.870850, -0.517334, -6.469728, -8.728027, -3.479005
137776, 0.298096, 0.850464, -0.530518, -11.779789, -8.728027, -6.591799
137796, 0.370117, 0.863770, -0.469727, -15.747074, -18.981934, -13.610844
137816, 0.416016, 0.843628, -0.501709, -18.371582, -38.879395, -23.315437
137836, 0.311157, 0.817261, -0.404175, -9.399414, -56.030289, -21.179199
137856, 0.224487, 0.853882, -0.401245, 3.906251, -50.048843, -10.192871
137876, 0.258667, 0.910889, -0.372681, 8.605957, -41.503906, -9.643555
137896, 0.162476, 0.869141, -0.472900, 11.108402, -41.992188, -3.723145
137916, 0.181763, 0.863770, -0.477051, 5.615236, -33.874512, 11.474613
137936, 0.217773, 0.923340, -0.350586, 3.112794, -39.184570, 19.775391
137956, 0.163452, 0.890747, -0.373779, 5.981447, -43.334961, 31.616219
137976, 0.232666, 0.917969, -0.461792, -0.305176, -31.494148, 32.897949
137996, 0.175293, 0.947510, -0.339966, -3.662110, -33.203125, 21.057129
138016, 0.064941, 0.984863, -0.273193, 7.080080, -19.348145, 17.456055
138036, 0.035278, 0.950684, -0.442383, 9.887695, -27.282722, 14.404301
138056, -0.099487, 0.900757, -0.522827, 1.281738, -20.080566, 13.488773
138076, -0.044922, 0.932495, -0.471313, -2.441406, 3.234864, 24.108894
138096, -0.044556, 0.914063, -0.435791, 6.103518, 11.962894, 18.310547
138116, -0.074097, 0.885376, -0.524536, 6.835939, 29.418953, 22.460945
138136, -0.001831, 0.875854, -0.556885, 0.549316, 41.625977, 26.000984
138156, 0.031372, 0.898315, -0.531494, -4.333496, 48.278824, 26.794441
138176, 0.086060, 0.905151, -0.520630, -7.934572, 52.734390, 22.766121
138196, 0.186523, 0.912598, -0.544678, -12.512211, 53.039566, 11.840824
138216, 0.301270, 0.897461, -0.495972, -15.869144, 41.625977, -7.690432
138236, 0.291016, 0.886841, -0.427612, -8.300781, 20.019531, -27.038582
138256, 0.109375, 0.854614, -0.405273, 1.037598, 22.155769, -21.850586
138276, 0.201294, 0.869995, -0.503052, 1.159668, 30.700691, -5.981447
138296, 0.281860, 0.888550, -0.501953, -5.432129, 19.897461, -13.732914
138316, 0.241333, 0.890503, -0.421143, -3.112794, 19.409180, -20.202637
138336, 0.167847, 0.838989, -0.408936, 1.464844, 30.029305, -16.845703
138356, 0.106689, 0.841797, -0.378662, 3.112794, 53.100601, 14.526371
138376, 0.344971, 0.821167, -0.457520, -1.037598, 60.729996, 31.311043
138396, 0.533569, 0.860229, -0.487671, -11.352543, 49.560562, 22.949226
138416, 0.623901, 0.840088, -0.446777, -16.113281, 27.771004, -10.681152
138436, 0.526001, 0.854858, -0.352173, -11.840824, 15.441898, -34.057617
138456, 0.405884, 0.796265, -0.368042, -0.305176, 7.263186, -26.611336
138476, 0.350098, 0.794922, -0.430054, -1.953125, 4.150391, -10.314941
138496, 0.381470, 0.782104, -0.382935, -5.432129, 5.981447, 4.943848
138516, 0.477539, 0.878540, -0.348633, -1.525879, 8.666992, 12.756351
138536, 0.645142, 0.880249, -0.424316, -0.854492, -3.417970, -6.835939
138556, 0.630371, 0.869995, -0.385498, -4.394531, -31.005867, -30.761726
138576, 0.532227, 0.876953, -0.358643, -3.601075, -61.279312, -49.804703
138596, 0.420166, 0.874878, -0.371216, -4.272461, -92.285187, -60.302750
138616, 0.318970, 0.875366, -0.370483, -5.798342, -118.591339, -66.955566
138636, -0.027588, 0.878540, -0.396606, -8.300781, -120.788605, -62.011734
138656, -0.242798, 0.974854, -0.183960, -8.056641, -26.000984, 6.286623
138676, 0.014526, 0.969238, -0.215332, 8.850098, 7.507326, 31.616219
138696, 0.153320, 0.916748, -0.355347, 10.070801, 20.935059, 40.588379
138716, 0.317871, 0.945190, -0.267578, 7.995607, 2.624512, 40.832520
138736, 0.296875, 0.906494, -0.348999, 6.225588, -10.009766, 33.142090
138756, 0.311768, 0.940063, -0.356812, -3.845216, -15.319828, 29.174812
138776, 0.281494, 0.928711, -0.325195, 2.014160, -31.555183, 16.967773
138796, 0.136353, 0.910889, -0.447876, -2.258301, -27.954109, 16.906738
138816, 0.180054, 0.909180, -0.419067, -6.164553, -28.564461, 25.024422
138836, 0.088867, 0.871338, -0.479980, -7.202150, -23.071297, 28.991707
138856, 0.164307, 0.904541, -0.453491, -6.164553, -19.592285, 29.418953
138876, 0.158447, 0.891357, -0.474121, 1.586915, -19.836426, 22.766121
138896, 0.205688, 0.875610, -0.547607, 6.225588, -23.681648, 8.605957
138916, 0.129272, 0.867920, -0.595337, 9.765625, -30.578621, -12.451176
138936, -0.020630, 0.848999, -0.653320, 5.859377, -28.991707, -24.658211
138956, -0.145264, 0.855347, -0.631836, -10.681152, -5.615236, -8.239746
138976, -0.040649, 0.887817, -0.491211, -19.165039, 13.427738, 11.352543
138996, 0.154175, 0.895996, -0.422729, -21.972656, 20.812988, 20.080566
139016, 0.293579, 0.914429, -0.335938, -18.798828, 20.080566, 16.540527
139036, 0.354980, 0.929932, -0.281738, -6.164553, 7.446291, 3.173829
139056, 0.319580, 0.929199, -0.287598, 3.479005, -0.671387, -5.676271
139076, 0.248413, 0.923584, -0.322754, 11.474613, -3.540040, -10.925293
139096, 0.196289, 0.905151, -0.396118, 15.014652, -3.234864, -11.413578
139116, 0.166382, 0.885010, -0.470581, 12.329105, -3.601075, -9.338379
139136, 0.132935, 0.882935, -0.483398, 6.469728, -3.051759, -4.821777
139156, 0.121948, 0.888184, -0.467407, 1.525879, 0.854492, 0.793457
139176, 0.154419, 0.894897, -0.444336, -1.525879, 5.798342, 5.004883
139196, 0.188354, 0.901733, -0.411255, -2.258301, 9.460449, 6.408693
139216, 0.222534, 0.906128, -0.383667, -0.732422, 9.460449, 6.103518
139236, 0.228760, 0.910156, -0.368774, 2.868653, 9.399414, 4.821777
139256, 0.228027, 0.903198, -0.393311, 5.310059, 8.666992, 3.662110
139276, 0.217896, 0.900269, -0.401733, 6.347658, 7.507326, 3.234864
139296, 0.208862, 0.895142, -0.418213, 6.713869, 7.446291, 3.967286
139316, 0.209106, 0.891479, -0.426270, 6.103518, 10.070801, 4.516602
139336, 0.226685, 0.886841, -0.442993, 4.394531, 9.887695, 5.249023
139356, 0.237061, 0.887451, -0.433472, 2.380371, 8.056641, 5.187988
139376, 0.234497, 0.891113, -0.417114, 1.831055, 8.117676, 4.821777
139396, 0.240112, 0.892090, -0.409424, 2.075195, 8.972168, 4.333496
139416, 0.259155, 0.890747, -0.413696, 3.112794, 5.859377, 3.479005
139436, 0.260498, 0.887451, -0.418213, 2.929688, 2.929688, 2.441406
139456, 0.247681, 0.886597, -0.424927, 2.563477, 2.136230, 1.770020
139476, 0.236450, 0.881958, -0.428345, 1.525879, 2.197266, 1.953125
