timestamp,ax,ay,az,gx,gy,gz
373974, -0.047485, 0.848633, -0.554443, -3.540040, 17.272949, -6.042482
373994, -0.023071, 0.849976, -0.537720, -1.892090, 9.216309, -6.958010
374014, -0.050781, 0.849854, -0.543457, 2.014160, 6.469728, -2.380371
374034, 0.012085, 0.838013, -0.572510, 1.831055, -0.427246, -1.647950
374054, 0.021729, 0.835693, -0.583374, 1.953125, -5.187988, -3.540040
374074, -0.008667, 0.835693, -0.580322, 0.732422, -10.498047, -4.516602
374094, -0.022339, 0.839355, -0.574097, 0.549316, -13.305668, -4.821777
374114, -0.068237, 0.846436, -0.542847, 2.075195, -12.084965, -3.845216
374134, -0.095947, 0.842407, -0.561523, 3.784181, -4.394531, -1.037598
374154, -0.059937, 0.836670, -0.575806, 4.394531, 4.333496, 1.159668
374174, -0.013428, 0.829712, -0.603271, 1.586915, 0.427246, -0.549316
374194, -0.053955, 0.836426, -0.571045, 1.159668, -2.319336, 1.342773
374214, -0.046143, 0.839111, -0.571411, 2.075195, -1.892090, 2.563477
374234, -0.017822, 0.835815, -0.572632, 2.685547, 2.258301, 1.831055
374254, -0.026611, 0.837402, -0.570313, 2.929688, 2.319336, 0.732422
374314, -0.030762, 0.834717, -0.586548, -0.183106, -0.061035, -0.183106
374334, -0.018555, 0.836304, -0.569824, 0.366211, -2.075195, -0.549316
374354, -0.049194, 0.838379, -0.567139, 1.831055, -0.976563, 0.793457
374374, -0.031250, 0.831177, -0.585571, 1.159668, 0.305176, 1.647950
374394, -0.016479, 0.830933, -0.588257, 0.305176, -0.366211, 0.915528
374414, -0.023071, 0.836060, -0.572876, 0.427246, -0.488281, 0.549316
374434, -0.018555, 0.834106, -0.578735, 1.220703, -0.793457, -0.183106
374454, -0.003784, 0.830811, -0.587280, 0.976563, -1.464844, -1.159668
374474, -0.053955, 0.837158, -0.570557, 0.488281, -3.234864, -1.220703
374494, -0.063843, 0.833618, -0.581299, 1.342773, -0.244141, 1.525879
374514, -0.008301, 0.829956, -0.590088, 1.281738, 1.220703, 1.892090
374534, 0.016479, 0.831299, -0.587891, -0.183106, -1.403809, -1.037598
374554, -0.046753, 0.835693, -0.574341, -0.122070, -2.502441, -1.953125
374574, -0.066772, 0.834961, -0.571655, 1.159668, -0.488281, 0.183106
374594, -0.033203, 0.829956, -0.595825, 0.854492, 1.342773, 1.892090
374614, -0.004517, 0.831177, -0.591187, -0.427246, -0.061035, 1.220703
374634, 0.002563, 0.836548, -0.571899, -0.427246, -1.403809, -1.342773
374654, -0.038208, 0.834839, -0.573730, 0.732422, -1.464844, -2.075195
374674, -0.042847, 0.830933, -0.588013, 0.366211, -0.854492, -0.976563
374694, -0.022827, 0.831177, -0.590210, -0.122070, -0.610352, -0.793457
374714, -0.039429, 0.836426, -0.572266, -0.244141, -0.183106, -0.732422
374734, -0.044922, 0.839844, -0.566406, 2.136230, 0.610352, 0.976563
374754, -0.007324, 0.827148, -0.599609, 1.708985, 2.136230, 1.525879
374774, 0.016479, 0.826660, -0.601929, -0.122070, -1.159668, -1.220703
374794, -0.035034, 0.835449, -0.572388, -0.732422, -4.089355, -2.319336
374814, -0.062256, 0.838379, -0.563721, 0.976563, -1.342773, -0.366211
374834, -0.036499, 0.829468, -0.592773, 1.037598, 1.403809, 0.671387
374854, -0.008545, 0.832275, -0.583252, 0.061035, 1.159668, 0.000000
374874, -0.033813, 0.834961, -0.575684, 0.305176, -1.342773, -0.610352
374894, -0.034546, 0.834229, -0.572754, 1.220703, -0.671387, 0.305176
374914, -0.022217, 0.830688, -0.589233, 1.342773, 0.854492, -0.183106
374934, -0.031250, 0.832397, -0.581421, -0.183106, -0.915528, -1.220703
374954, -0.052002, 0.838257, -0.564819, 1.037598, 0.183106, 0.061035
374974, -0.022827, 0.830322, -0.588745, 1.525879, 0.183106, 1.098633
374994, 0.009399, 0.828369, -0.594604, 0.305176, -0.610352, -0.854492
375014, -0.016724, 0.829712, -0.590576, -0.976563, -3.662110, -2.746582
375034, -0.081299, 0.840820, -0.559448, -0.122070, -3.356935, -0.549316
375054, -0.058716, 0.836548, -0.567383, 1.770020, 0.671387, 2.258301
375074, -0.001343, 0.827148, -0.599243, 1.770020, 2.868653, 1.586915
375094, 0.013672, 0.827881, -0.601196, -0.366211, 0.427246, -1.586915
375114, -0.061890, 0.839355, -0.560303, -0.305176, -2.990724, -2.014160
375134, -0.071411, 0.838135, -0.561279, 1.403809, 0.122070, 1.220703
375154, -0.033203, 0.828735, -0.591309, 2.136230, 2.380371, 2.868653
375174, 0.030762, 0.825439, -0.605347, 0.061035, 0.915528, 0.732422
375194, 0.011475, 0.832153, -0.591675, -1.342773, -4.760742, -3.479005
375214, -0.073486, 0.837280, -0.565674, -0.610352, -4.089355, -2.502441
375234, -0.081543, 0.838623, -0.560791, 1.342773, 0.305176, 1.037598
375254, -0.031982, 0.830078, -0.585815, 1.892090, 3.723145, 2.502441
375274, 0.019653, 0.828369, -0.598877, 0.549316, 1.342773, 0.793457
375294, 0.009277, 0.833130, -0.584473, -0.549316, -4.089355, -2.319336
375314, -0.077515, 0.836304, -0.568604, 0.610352, -1.342773, -0.671387
375334, -0.042969, 0.831665, -0.587891, 1.159668, 1.281738, 1.586915
375354, -0.017822, 0.829590, -0.592163, 0.061035, 1.281738, 1.464844
375374, 0.003906, 0.831787, -0.580200, -0.366211, -0.488281, -0.427246
375394, -0.031006, 0.835083, -0.572266, 0.366211, -2.075195, -1.464844
375414, -0.048828, 0.827881, -0.580933, 0.732422, 0.061035, -0.610352
375434, -0.033569, 0.838379, -0.599365, 0.671387, 0.549316, 0.427246
375454, -0.025024, 0.830566, -0.576294, -0.915528, -0.793457, 0.671387
375474, -0.032349, 0.837646, -0.565063, 0.915528, -1.586915, 0.671387
375494, -0.021851, 0.829224, -0.590332, 0.793457, -0.610352, -0.427246
375514, -0.028320, 0.830688, -0.588379, 0.122070, -0.793457, -0.671387
375534, -0.033203, 0.832764, -0.579224, -0.061035, -0.976563, -0.427246
375554, -0.023438, 0.831665, -0.585815, 0.061035, -1.403809, -0.183106
375574, -0.023682, 0.830322, -0.584961, -0.427246, -2.136230, -0.671387
375594, -0.035889, 0.833008, -0.588867, -0.793457, -1.953125, -0.488281
375614, -0.043701, 0.841431, -0.576294, -0.793457, -2.868653, -0.305176
375634, -0.116821, 0.887085, -0.488403, 3.967286, -0.061035, 2.258301
375654, -0.261719, 0.935669, -0.598022, 11.352543, 11.657719, 12.146000
375674, -0.242065, 1.029419, -0.702637, -8.300781, 33.142090, 31.494148
375694, -0.272949, 1.015991, -0.436157, 61.279312, 30.212410, 34.790039
375714, -0.023071, 0.927368, -0.801392, 47.302261, 35.339355, 30.883797
375734, -0.089966, 0.939819, -0.664551, 48.706070, 27.160652, 17.883301
375754, -0.083252, 0.790771, -0.758667, 43.090820, 17.578125, -9.948730
375774, -0.366821, 0.538696, -0.706909, 17.395020, 26.916512, -24.780281
375794, -0.230957, 0.539795, -0.609009, 1.281738, 47.729507, -30.273445
375814, -0.039429, 0.593384, -0.582153, -5.615236, 66.894531, -38.085938
375834, 0.116455, 0.655640, -0.560059, -2.258301, 71.044922, -50.170914
375854, 0.164551, 0.642456, -0.606323, -1.342773, 67.260742, -64.453125
375874, 0.205444, 0.697998, -0.642090, -4.882813, 58.959976, -77.392578
375894, 0.211426, 0.716064, -0.641113, -7.873537, 46.691910, -64.819336
375914, 0.239136, 0.750122, -0.603149, -5.981447, 41.137695, -48.156754
375934, 0.250732, 0.730713, -0.603027, -3.784181, 40.100098, -43.457031
375954, 0.276367, 0.733276, -0.598999, -9.887695, 43.151855, -46.142593
375974, 0.226929, 0.700684, -0.585571, -20.935059, 26.916512, -48.889175
375994, 0.126099, 0.726196, -0.524170, -28.442390, 15.441898, -42.785645
376014, 0.042847, 0.764526, -0.497803, -28.747566, 11.474613, -23.986824
376034, 0.031860, 0.846313, -0.486450, -26.855476, 11.779789, -7.568361
376054, 0.009521, 0.796509, -0.541260, -31.066902, 17.578125, 5.981447
376074, 0.223267, 1.515991, -0.412231, -12.817387, 23.010262, 7.934572
376094, 0.083130, 0.943481, -0.965820, -2.075195, -21.728516, -2.136230
376114, -0.042969, 0.777710, -0.509033, -10.803223, 2.380371, -0.610352
376134, 0.039307, 0.859253, -0.467163, -7.751467, -8.422852, -0.549316
376154, -0.022217, 0.915161, -0.554932, -0.305176, -6.591799, -0.183106
376174, -0.021118, 0.865234, -0.586304, 2.197266, -4.821777, 1.464844
376194, 0.016968, 0.847900, -0.534790, 3.967286, -0.915528, 1.464844
376214, 0.058350, 0.844971, -0.572266, 5.615236, -3.417970, -0.488281
376234, 0.028931, 0.835938, -0.589600, 4.089355, -6.164553, -3.784181
376254, 0.001587, 0.827271, -0.593750, 2.502441, -7.629396, -4.333496
376274, -0.056152, 0.834351, -0.585693, 1.464844, -4.760742, -3.051759
376294, -0.040771, 0.840942, -0.571899, 0.976563, 4.272461, -0.671387
376314, 0.058228, 0.838013, -0.567627, 2.319336, 8.300781, -2.075195
376334, 0.085571, 0.831421, -0.593262, 1.159668, -3.417970, -7.202150
376354, -0.039795, 0.834717, -0.588745, -0.122070, -9.338379, -7.019045
376374, -0.081421, 0.834717, -0.574951, -0.488281, -6.042482, -2.075195
376394, -0.034668, 0.842651, -0.554688, 0.793457, 0.671387, 0.610352
376414, 0.003174, 0.839722, -0.565552, 1.953125, 1.586915, 0.610352
376434, 0.000000, 0.836304, -0.570679, 2.868653, -0.244141, 0.061035
376454, -0.005249, 0.830078, -0.596680, 0.854492, -0.061035, -0.183106
376474, 0.023315, 0.835693, -0.581177, 0.000000, -0.793457, -1.525879
376494, 0.003784, 0.835449, -0.572021, 0.183106, -2.685547, -3.356935
376514, -0.047729, 0.842651, -0.557861, 1.159668, -1.953125, -2.197266
376534, -0.077637, 0.836182, -0.571167, 2.929688, 0.793457, 2.746582
376554, 0.000488, 0.837036, -0.582153, 2.441406, 2.746582, 4.577637
376574, 0.051880, 0.831909, -0.578369, 2.563477, 1.708985, 1.586915
376594, 0.054321, 0.835205, -0.575317, 2.746582, -2.502441, -2.990724
376614, -0.017090, 0.834839, -0.578735, 2.990724, -5.859377, -4.699707
376634, -0.059082, 0.828369, -0.586060, 3.723145, -0.488281, 1.037598
376654, -0.001343, 0.838745, -0.590332, 3.112794, 3.662110, 1.708985
376674, 0.058716, 0.812988, -0.619263, 0.976563, 0.366211, -1.281738
376694, 0.044189, 0.831665, -0.580933, -0.122070, -5.310059, -5.310059
376714, -0.004883, 0.827637, -0.594482, -0.793457, -7.324221, -6.958010
376734, -0.026245, 0.832153, -0.578979, -0.915528, -6.652834, -6.591799
376754, -0.049316, 0.832520, -0.582764, -0.366211, -4.577637, -5.126953
376774, -0.022217, 0.833618, -0.574829, -0.610352, -2.075195, -4.333496
376794, -0.034058, 0.834473, -0.571045, 0.488281, -2.685547, -4.211426
376814, -0.052612, 0.833008, -0.575317, 1.403809, -0.305176, -2.319336
376834, -0.013306, 0.828735, -0.585938, 0.976563, 1.586915, -1.281738
376854, -0.024902, 0.828613, -0.587891, 0.976563, -0.915528, -1.464844
376874, -0.009888, 0.831543, -0.589111, 0.000000, 0.183106, -1.892090
376894, -0.038696, 0.830933, -0.578491, 0.183106, -1.892090, -1.953125
376914, -0.047241, 0.832275, -0.579468, 0.549316, 0.366211, -0.061035
376934, -0.033203, 0.831787, -0.581055, 0.854492, 1.342773, 0.610352
376954, -0.000122, 0.829590, -0.589966, 0.366211, 1.586915, 0.061035
376974, -0.002808, 0.832764, -0.580444, 0.183106, -1.220703, -1.586915
376994, -0.015015, 0.828003, -0.591187, 0.183106, -3.845216, -1.892090
377014, -0.070435, 0.835205, -0.568970, -0.061035, -4.333496, -0.061035
377034, -0.044067, 0.833984, -0.574829, 1.403809, 1.770020, 2.258301
377054, 0.021729, 0.827393, -0.594971, 0.854492, -0.488281, 0.793457
377074, 0.019409, 0.823242, -0.607910, -1.281738, -6.774904, -2.014160
377094, -0.064453, 0.833008, -0.584961, -2.136230, -8.300781, -1.953125
377114, -0.033936, 0.831787, -0.580688, -1.281738, -5.432129, 0.122070
377134, 0.033081, 0.827271, -0.599609, -3.234864, -8.666992, -1.953125
377154, 0.010132, 0.829468, -0.584595, -4.028320, -18.432617, -4.943848
377174, -0.045288, 0.832642, -0.586670, -4.821777, -22.033691, -4.943848
377194, -0.072388, 0.837158, -0.564941, -4.821777, -23.071297, -2.319336
377214, -0.140503, 0.847290, -0.510376, -3.845216, -36.132813, 5.981447
377234, -0.095459, 0.862915, -0.457886, 17.089844, -6.469728, 31.555183
377254, -0.010010, 0.827637, -0.615479, 15.014652, -2.807618, 29.968269
377274, -0.093018, 0.835449, -0.578979, 10.925293, 3.967286, 22.521980
377294, -0.019165, 0.833618, -0.577393, 10.864258, 7.507326, 25.512703
377314, 0.037720, 0.830322, -0.604980, 7.019045, -7.019045, 18.676758
377334, -0.001099, 0.837769, -0.591919, 4.760742, -13.183598, 26.062019
377354, 0.048950, 0.842529, -0.575317, 3.295899, -21.118164, 27.160652
377374, -0.007935, 0.834839, -0.589722, 0.061035, -23.742683, 13.427738
377394, 0.000366, 0.863159, -0.656860, -14.465336, -35.400391, 19.592285
377414, 0.045776, 0.858154, -0.627075, -29.357918, -54.260269, 23.376472
377434, 0.069946, 0.870850, -0.570313, -36.560059, -65.002441, 19.958496
377454, -0.000488, 0.849365, -0.558594, -40.771484, -71.472168, 13.305668
377474, 0.017456, 0.824341, -0.597900, -53.710953, -70.922852, 7.934572
377494, -0.055176, 0.823608, -0.572998, -59.143082, -72.326660, 1.403809
377514, -0.148315, 0.865723, -0.481934, -56.213394, -72.631836, 0.549316
377534, -0.236694, 0.891968, -0.391113, -54.992691, -55.664078, 5.310059
377554, -0.176758, 0.885864, -0.511597, -44.250504, -32.531738, 7.873537
377574, -0.154785, 0.902832, -0.412842, -55.297867, -25.573738, 3.479005
377634, -0.006348, 0.891479, -0.482056, -43.579102, 15.441898, -28.808601
377654, -0.233765, 0.918335, -0.285278, -55.480972, 22.155769, -44.860855
377674, -0.253906, 0.925659, -0.315796, -44.250504, 40.649414, -49.194351
377694, -0.388062, 0.989258, -0.100830, -42.724609, 57.128922, -42.846680
377714, -0.127808, 0.994629, -0.213867, -6.530764, 57.250992, -10.559082
377734, 0.046509, 0.932861, -0.405762, 8.483887, 43.823242, 2.441406
377754, 0.031860, 0.948730, -0.397827, 2.258301, 45.959488, -1.281738
377774, 0.127808, 0.943115, -0.423950, 3.601075, 23.132332, -3.356935
377794, 0.103027, 0.923218, -0.469604, 1.586915, -4.699707, -3.356935
377814, -0.067017, 0.922119, -0.421631, -6.896975, -34.057617, -4.699707
377834, -0.120728, 0.943970, -0.342773, -10.131836, -55.908218, 0.915528
377854, -0.075928, 0.953369, -0.330444, -9.765625, -78.552246, 6.774904
377874, -0.105103, 0.965088, -0.348633, -10.253906, -104.736359, 9.460449
377894, -0.244385, 1.019043, -0.349365, -13.000492, -83.190918, 52.856461
377914, 0.340698, 0.992310, -0.275146, 0.976563, -94.726593, 70.678711
377934, 0.160645, 0.953491, -0.403687, 5.798342, -105.102570, 67.443848
377954, 0.055664, 0.910156, -0.391357, -8.483887, -107.482941, 37.658691
377974, -0.194336, 0.957520, -0.213989, -10.559082, -101.928741, 24.475105
377994, -0.201660, 1.008667, -0.117676, -0.122070, -94.116241, 27.832039
378014, -0.256348, 0.993042, -0.108887, 10.437012, -72.265625, 26.916512
378034, -0.223877, 0.949829, -0.250244, 9.887695, -51.269547, 18.676758
378054, -0.203125, 0.953735, -0.213135, -3.112794, -40.893555, -0.854492
378074, -0.277710, 0.977905, -0.165894, -1.220703, -32.043457, -7.263186
378094, -0.312988, 0.972290, -0.257324, 2.014160, -1.708985, 4.272461
378114, -0.036743, 0.947876, -0.351563, -1.770020, 22.216805, 3.234864
378134, 0.070068, 0.950684, -0.361572, -10.009766, 38.513184, -13.061527
378154, -0.070313, 0.985718, -0.215332, -15.014652, 71.166992, -32.470703
378174, -0.115723, 0.987915, -0.193115, -8.056641, 107.788116, -38.757324
378194, 0.211792, 0.951904, -0.327148, -8.666992, 102.294952, -52.063004
378214, -0.113037, 0.967163, -0.222534, -9.460449, 97.839386, -69.152832
378234, -0.393066, 1.007813, -0.074341, 4.333496, 110.839874, -58.715836
378254, -0.182861, 0.977173, -0.188721, 20.507813, 146.850586, -48.889175
378274, 0.222534, 0.912231, -0.458130, 17.517090, 98.938019, -57.495132
378294, -0.201660, 0.912720, -0.411133, 6.347658, 27.221687, -55.908218
378314, -0.581787, 0.945679, -0.271362, 8.666992, -10.009766, -24.780281
378334, -0.473389, 0.939209, -0.305786, 10.925293, 1.770020, 6.347658
378354, -0.024902, 0.933838, -0.356323, 7.019045, 2.563477, 10.131836
378374, 0.036377, 0.936890, -0.366089, 3.784181, -13.244633, -3.356935
