timestamp,ax,ay,az,gx,gy,gz
2164211, 0.338013, 0.846680, -0.438477, 2.746582, 1.586915, -1.037598
2164231, 0.351318, 0.844604, -0.440308, 2.868653, 0.305176, -3.051759
2164251, 0.366577, 0.849365, -0.433594, 3.601075, -0.366211, -5.554201
2164271, 0.352661, 0.847412, -0.424194, 4.760742, -1.586915, -8.728027
2164291, 0.369873, 0.850342, -0.435303, 6.469728, -5.859377, -11.108402
2164311, 0.329956, 0.845825, -0.444458, 6.958010, -8.911133, -13.366703
2164331, 0.314941, 0.845947, -0.450684, 7.568361, -8.361816, -13.671879
2164351, 0.314941, 0.843140, -0.467041, 6.835939, -10.375977, -14.648441
2164371, 0.282959, 0.844238, -0.467163, 6.286623, -10.009766, -13.977055
2164391, 0.231445, 0.842773, -0.487427, 3.784181, -8.300781, -10.925293
2164411, 0.219360, 0.841797, -0.496704, 1.403809, -3.662110, -6.469728
2164431, 0.201294, 0.845093, -0.489380, -0.549316, 0.183106, -1.220703
2164451, 0.235596, 0.848511, -0.477905, -1.892090, 5.676271, 3.723145
2164471, 0.285767, 0.849976, -0.461548, -2.563477, 6.286623, 4.821777
2164491, 0.307861, 0.850952, -0.453491, -1.770020, 4.211426, 4.455566
2164571, 0.244385, 0.847168, -0.467407, -3.295899, 2.929688, 9.216309
2164591, 0.292969, 0.848999, -0.446655, -2.685547, 9.582520, 12.390141
2164611, 0.332886, 0.848022, -0.451782, -2.441406, 9.155273, 11.047363
2164631, 0.343872, 0.846680, -0.446777, -2.136230, 7.751467, 9.216309
2164651, 0.347534, 0.847534, -0.436523, -1.403809, 6.042482, 6.835939
2164671, 0.374878, 0.848267, -0.429199, -0.305176, 4.089355, 3.662110
2164691, 0.391113, 0.848755, -0.428345, 1.403809, -0.122070, -1.037598
2164711, 0.376709, 0.846680, -0.435913, 2.746582, -4.760742, -5.432129
2164731, 0.331177, 0.845825, -0.449341, 3.234864, -7.812502, -7.995607
2164751, 0.291016, 0.843872, -0.458740, 3.112794, -6.896975, -7.202150
2164771, 0.282593, 0.844238, -0.469727, 1.525879, -2.868653, -4.150391
2164791, 0.289673, 0.843384, -0.465576, 0.488281, -1.403809, -2.563477
2164811, 0.286011, 0.846436, -0.461060, -0.366211, -0.610352, -1.281738
2164831, 0.294312, 0.846802, -0.456909, -0.671387, 0.305176, 0.061035
2164851, 0.305176, 0.845947, -0.455078, -0.793457, 0.610352, 0.549316
2164871, 0.310913, 0.849487, -0.448730, -0.549316, 0.671387, 0.305176
2164891, 0.297607, 0.848511, -0.446655, -0.122070, 0.671387, 0.732422
2164911, 0.307251, 0.848999, -0.446411, 0.427246, 0.854492, 1.342773
2164931, 0.312256, 0.848267, -0.451294, 0.610352, 0.854492, 1.098633
2164951, 0.317627, 0.847656, -0.451294, 0.915528, 1.159668, 0.854492
2164971, 0.313965, 0.846191, -0.454346, 1.159668, 0.000000, 0.183106
2164991, 0.305664, 0.846558, -0.452393, 1.159668, -0.488281, 0.366211
2165011, 0.308960, 0.844604, -0.455933, 1.037598, 0.366211, 0.793457
2165031, 0.317871, 0.844238, -0.454468, 0.671387, -0.183106, 0.366211
2165051, 0.320313, 0.844116, -0.461426, 0.366211, -0.305176, -0.183106
2165071, 0.315430, 0.846436, -0.458496, -0.061035, -0.610352, -0.610352
2165091, 0.301025, 0.846191, -0.453735, -0.427246, -0.732422, -0.366211
2165111, 0.313599, 0.845581, -0.454834, -0.488281, -0.488281, 0.061035
2165131, 0.308472, 0.848145, -0.445679, -0.244141, -0.366211, 0.000000
2165151, 0.323364, 0.846924, -0.453735, 0.183106, -0.854492, -0.671387
2165171, 0.297241, 0.848022, -0.448364, 0.244141, -0.549316, -0.488281
2165191, 0.301880, 0.847778, -0.452026, 0.305176, 0.671387, 0.366211
2165211, 0.310669, 0.846802, -0.451904, 0.427246, 0.793457, 0.793457
2165231, 0.299561, 0.848267, -0.448120, 0.488281, 1.403809, 0.976563
2165251, 0.306885, 0.846680, -0.453125, 0.793457, 2.319336, 1.831055
2165271, 0.315186, 0.844238, -0.453491, 0.549316, 2.380371, 1.953125
2165291, 0.322388, 0.843628, -0.453979, 0.244141, 2.075195, 1.525879
2165311, 0.320801, 0.845581, -0.450806, 0.183106, 1.159668, 1.342773
2165331, 0.319824, 0.846436, -0.447876, 0.488281, 0.488281, 1.098633
2165351, 0.303833, 0.845825, -0.452148, 0.671387, 2.075195, 1.953125
2165371, 0.306274, 0.844727, -0.450439, 0.549316, 2.990724, 2.990724
2165391, 0.321777, 0.843140, -0.452881, 0.244141, 3.356935, 3.295899
2165411, 0.323975, 0.839233, -0.466309, -0.549316, 3.234864, 2.929688
2165431, 0.315674, 0.837769, -0.472778, -2.197266, 4.272461, 3.234864
2165451, 0.282593, 0.838135, -0.468872, -4.333496, 6.713869, 4.699707
2165471, 0.311768, 0.839478, -0.468140, -6.286623, 10.864258, 6.835939
2165491, 0.317505, 0.841309, -0.452148, -7.751467, 13.549809, 7.324221
2165511, 0.370850, 0.837036, -0.456909, -9.277344, 15.075687, 6.713869
2165531, 0.339233, 0.843872, -0.426147, -11.047363, 11.840824, 3.723145
2165551, 0.417725, 0.839844, -0.445923, -11.718754, 8.728027, 2.441406
2165571, 0.399048, 0.837769, -0.441772, -14.831547, 1.159668, -1.892090
2165591, 0.465576, 0.845215, -0.413696, -15.258793, -4.516602, -6.408693
2165611, 0.498169, 0.804810, -0.383423, -15.563969, -20.385742, -16.723633
2165631, 0.143433, 0.824219, -0.253296, 5.187988, -20.141602, 3.479005
2165651, 0.346436, 0.787354, -0.450073, 9.216309, -5.920412, 24.780281
2165671, 0.340698, 0.800781, -0.469971, 6.896975, -1.892090, 31.677254
2165691, 0.308105, 0.860352, -0.472778, 1.403809, 4.882813, 34.545898
2165711, 0.344116, 0.893433, -0.470215, -5.249023, 8.361816, 22.583015
2165731, 0.311035, 0.899048, -0.356445, -9.277344, 18.920898, 8.422852
2165751, 0.427368, 0.910645, -0.361816, -14.831547, 15.563969, -0.976563
2165771, 0.207642, 0.916626, -0.140503, 0.671387, 6.103518, 6.103518
2165791, 0.248779, 0.885376, -0.226685, 17.639160, 10.314941, 19.897461
2165811, 0.348999, 0.888062, -0.458618, 15.991215, 25.207527, 23.315437
2165831, 0.543335, 0.902710, -0.410156, -8.483887, 15.625004, 7.019045
2165851, 0.402710, 0.907349, -0.358276, -15.197758, 9.643555, -1.770020
2165871, 0.455078, 0.881470, -0.336914, -21.911621, 1.892090, -7.751467
2165891, 0.453491, 0.877563, -0.320068, -22.399910, -3.112794, -12.756351
2165911, 0.382690, 0.842529, -0.309204, -10.681152, -11.718754, -12.756351
2165931, 0.376709, 0.808472, -0.371582, -4.211426, -9.460449, -8.117676
2165951, 0.391602, 0.787598, -0.428345, 0.305176, -5.676271, -2.136230
2165971, 0.376343, 0.792236, -0.472778, 4.943848, -5.065918, 5.676271
2165991, 0.410645, 0.776001, -0.483643, 3.662110, -5.798342, 4.516602
2166011, 0.317749, 0.755371, -0.489502, 7.568361, 1.037598, 13.183598
2166031, 0.430176, 0.780762, -0.548706, 0.854492, 10.253906, 20.507813
2166051, 0.475586, 0.814819, -0.494019, -11.962894, 11.108402, 13.732914
2166071, 0.512939, 0.907104, -0.322388, -12.207035, 8.544922, 7.324221
2166091, 0.374512, 0.911377, -0.416992, 13.916019, -4.394531, -23.071297
2166111, 0.174805, 0.859497, -0.450684, 20.263672, -6.408693, -27.771004
2166131, 0.084229, 0.804810, -0.434814, 11.779789, 9.521484, -5.676271
2166151, 0.232544, 0.798218, -0.353638, 1.037598, 38.513184, 24.230965
2166171, 0.590332, 0.801636, -0.232788, -6.958010, 47.241226, 37.841797
2166191, 0.850098, 0.829834, -0.128784, -8.117676, 32.897949, 33.508301
2166211, 1.013794, 0.870483, -0.111450, 10.314941, -18.859863, 0.061035
2166231, 1.002075, 0.832031, -0.208374, 24.902351, -69.885254, -35.156250
2166251, 0.869019, 0.704468, -0.412720, 7.507326, -104.003937, -60.974136
2166271, 0.478394, 0.653564, -0.257080, -23.803719, -91.491730, -31.799324
2166291, 0.524658, 0.859985, -0.153564, -20.874023, -58.593765, 25.573738
2166311, 0.407959, 0.925415, -0.281250, -8.911133, -74.890137, 21.484375
2166331, 0.109009, 0.977051, -0.515503, -0.427246, -88.928253, -3.417970
2166351, -0.296875, 0.978882, -0.677856, 14.526371, -79.528809, -27.343758
2166371, -0.649414, 0.851563, -0.765503, 17.395020, -26.489265, -26.794441
2166391, -0.463501, 0.793457, -0.701538, -3.173829, 51.086441, 32.226563
2166411, 0.109619, 0.807861, -0.493042, -16.174316, 99.121124, 61.279312
2166432, 0.635620, 0.819092, -0.371948, -19.653320, 97.839386, 54.260269
2166452, 0.821411, 0.834106, -0.315063, -15.991215, 63.659683, 29.907234
2166472, 0.706055, 0.842773, -0.321899, -8.605957, 1.037598, -4.943848
2166492, 0.521240, 0.847412, -0.323853, -3.967286, -19.104004, -16.235352
2166512, 0.394775, 0.850342, -0.342529, -0.366211, -22.705086, -19.165039
2166532, 0.340942, 0.853027, -0.351440, 2.868653, -18.615723, -16.967773
2166552, 0.376587, 0.849121, -0.378784, 4.760742, -16.174316, -15.563969
2166572, 0.354614, 0.848999, -0.390259, 5.554201, -16.052246, -14.831547
2166592, 0.329102, 0.849365, -0.405151, 5.126953, -14.648441, -13.000492
2166612, 0.295410, 0.851318, -0.402954, 4.821777, -11.474613, -9.155273
2166632, 0.314331, 0.848145, -0.418213, 4.699707, -7.202150, -5.065918
2166652, 0.322510, 0.845581, -0.429199, 2.197266, -2.746582, -1.770020
2166672, 0.349854, 0.847412, -0.424194, 0.549316, -1.342773, -0.732422
2166692, 0.345581, 0.850098, -0.412354, -0.061035, 0.183106, -0.183106
2166712, 0.362427, 0.852295, -0.403320, -0.183106, 0.305176, -0.427246
2166732, 0.369629, 0.852661, -0.403198, 0.305176, -1.098633, -1.037598
2166752, 0.385376, 0.850708, -0.402100, 0.915528, -4.333496, -2.136230
2166772, 0.363770, 0.851318, -0.414063, 0.427246, -7.263186, -3.906251
2166792, 0.322876, 0.853760, -0.405640, 0.610352, -6.164553, -2.990724
2166812, 0.316040, 0.855103, -0.404419, 1.403809, -1.403809, -0.915528
2166832, 0.350464, 0.854126, -0.402466, 1.953125, -0.549316, -0.183106
2166852, 0.379761, 0.851074, -0.411255, 2.319336, -4.089355, -1.708985
2166872, 0.385498, 0.847534, -0.426636, 1.525879, -9.765625, -3.845216
2166892, 0.324585, 0.851563, -0.420532, 1.037598, -9.826660, -4.150391
2166912, 0.323242, 0.847412, -0.429443, 0.183106, -6.835939, -3.112794
2166932, 0.294800, 0.849609, -0.429688, -1.098633, -2.990724, -1.098633
2166952, 0.318848, 0.850098, -0.432739, -2.197266, 2.075195, 0.610352
2166972, 0.320801, 0.851440, -0.419067, -3.173829, 3.295899, 2.014160
2166992, 0.356445, 0.846924, -0.421143, -3.784181, 3.540040, 1.953125
2167012, 0.362549, 0.855225, -0.401733, -3.906251, 1.892090, 0.793457
2167032, 0.356689, 0.862671, -0.377441, -1.464844, -2.014160, -0.549316
2167052, 0.356934, 0.863892, -0.377563, 1.159668, -4.638672, -1.098633
2167072, 0.342773, 0.863403, -0.384033, 3.601075, -5.920412, -1.708985
2167092, 0.315796, 0.860718, -0.392822, 5.554201, -4.699707, -0.427246
2167112, 0.316895, 0.858276, -0.399902, 6.958010, -2.502441, 1.098633
2167132, 0.339966, 0.854370, -0.405029, 8.178711, -1.037598, 2.197266
2167152, 0.390991, 0.848755, -0.422119, 8.361816, -3.356935, 0.183106
2167172, 0.385010, 0.845093, -0.436523, 7.568361, -6.652834, -3.112794
2167192, 0.352295, 0.844116, -0.447754, 5.615236, -9.216309, -5.493164
2167212, 0.325562, 0.843994, -0.453979, 3.967286, -7.263186, -5.493164
2167232, 0.308105, 0.849121, -0.435669, 1.770020, -3.723145, -4.089355
