timestamp,ax,ay,az,gx,gy,gz
2378943, 0.492798, 0.725952, -0.543091, 0.793457, -2.929688, -2.624512
2378963, 0.448608, 0.704102, -0.555542, 0.976563, -6.713869, -4.333496
2378983, 0.423218, 0.721924, -0.543335, 2.319336, -4.089355, -2.685547
2379003, 0.437988, 0.714111, -0.560669, 2.319336, -3.051759, -2.502441
2379023, 0.451538, 0.711914, -0.566650, 2.258301, -2.746582, -2.746582
2379043, 0.469482, 0.707031, -0.583496, 0.732422, -5.981447, -6.408693
2379063, 0.434570, 0.711426, -0.581665, -0.854492, -6.103518, -6.896975
2379083, 0.408325, 0.718506, -0.555908, -1.342773, -4.943848, -5.615236
2379103, 0.415894, 0.725220, -0.544067, -0.122070, -4.577637, -4.089355
2379183, 0.376465, 0.716309, -0.572388, 2.258301, 1.281738, 1.159668
2379203, 0.409424, 0.718018, -0.565918, 2.136230, 4.577637, 3.601075
2379223, 0.495239, 0.710083, -0.587036, 1.220703, -1.464844, 0.244141
2379243, 0.436035, 0.713867, -0.578491, -0.427246, -5.737307, -2.380371
2379263, 0.411621, 0.718628, -0.566772, -0.366211, -3.356935, -1.159668
2379283, 0.391113, 0.742554, -0.536255, 0.610352, -7.568361, 0.244141
2379303, 0.128662, 0.823242, -0.430054, 11.535648, -8.605957, 16.174316
2379323, -0.054077, 1.843140, -0.663086, 21.972656, 62.622086, 56.274429
2379343, 0.446411, 3.492920, 0.150513, 266.662598, 9.643555, 241.882385
2379363, 0.552612, 0.297363, -0.844482, 321.228027, -27.587898, 352.783203
2379383, 0.500732, -1.018311, -0.256348, 193.847717, -35.400391, 258.056641
2379403, 0.493530, -1.155396, -0.311279, 92.590363, -29.174812, 117.858917
2379423, 0.429932, -0.553833, -0.528809, -14.953617, -26.794441, -4.760742
2379443, 0.506348, -0.142578, -1.074463, -45.776382, 29.602058, -44.006348
2379463, 0.841064, 0.651978, -1.060791, -44.311539, 47.851578, -46.081558
2379563, 0.346680, 0.301880, -0.750977, -4.699707, 27.282722, -19.226074
2379583, 0.452881, 0.438232, -0.721436, 1.586915, 53.039566, -7.751467
2379603, 0.609863, 0.487549, -0.738281, 16.845703, 53.649918, 16.906738
2379623, 0.706787, 0.437622, -0.717529, 19.104004, 44.494644, 25.878914
2379643, 0.763184, 0.330933, -0.687134, 18.432617, 31.005867, 23.071297
2379663, 0.752441, 0.337036, -0.666382, 17.517090, 16.601563, 19.653320
2379683, 0.735718, 0.315674, -0.663940, 21.667480, 8.850098, 21.667480
2379703, 0.728638, 0.340698, -0.673706, 26.855476, 3.051759, 28.991707
2379723, 0.725464, 0.267212, -0.693848, 30.395515, 1.586915, 34.179688
2379743, 0.725220, 0.215454, -0.678345, 28.808601, -1.586915, 38.024902
2379763, 0.738525, 0.173828, -0.678589, 27.221687, -4.394531, 39.367676
2379783, 0.770630, 0.125854, -0.728638, 20.385742, -10.131836, 32.653809
2379803, 0.714233, 0.137573, -0.715942, 9.521484, -24.719246, 12.512211
2379823, 0.660767, 0.163940, -0.721313, 8.483887, -28.320320, 5.615236
2379843, 0.621826, 0.174805, -0.746826, 8.972168, -25.512703, 3.784181
2379863, 0.607056, 0.154663, -0.756348, 7.995607, -17.883301, 4.150391
2379883, 0.606079, 0.114502, -0.759644, 4.211426, -12.390141, -1.770020
2379903, 0.575195, 0.138916, -0.757324, -0.732422, -9.704590, -5.493164
2379923, 0.586792, 0.216064, -0.771851, -0.976563, -4.333496, -4.089355
2379943, 0.632813, 0.231201, -0.776123, 1.892090, -3.173829, -1.464844
2379963, 0.629639, 0.201782, -0.784180, 1.342773, -3.662110, -3.234864
2379983, 0.607544, 0.208618, -0.760376, -0.976563, -6.896975, -5.859377
2380003, 0.604736, 0.231323, -0.768311, 0.610352, -5.676271, -5.126953
2380023, 0.614868, 0.225220, -0.768921, 2.197266, -2.746582, -3.967286
2380043, 0.623779, 0.189087, -0.761719, 3.601075, -2.319336, -5.737307
2380063, 0.603271, 0.183350, -0.762085, 3.112794, -3.234864, -6.591799
2380083, 0.598877, 0.210815, -0.766235, 4.699707, 0.549316, -2.868653
2380103, 0.633789, 0.195923, -0.771240, 5.310059, 3.479005, -2.441406
2380123, 0.648438, 0.169189, -0.772827, 1.770020, 4.028320, -5.065918
2380143, 0.650269, 0.174316, -0.758179, -1.647950, 0.915528, -8.789063
2380163, 0.630249, 0.208374, -0.764893, -1.342773, -2.075195, -8.361816
2380183, 0.631714, 0.205688, -0.766724, 0.366211, -1.464844, -6.896975
2380203, 0.613037, 0.218628, -0.758911, 1.464844, -0.488281, -5.187988
2380223, 0.626343, 0.219116, -0.760864, 3.173829, 1.220703, -2.441406
2380243, 0.635742, 0.206665, -0.762207, 3.540040, 0.427246, -2.990724
2380263, 0.634521, 0.180664, -0.761719, 1.953125, -1.525879, -5.004883
2380283, 0.624878, 0.201294, -0.755371, 0.122070, -2.990724, -6.225588
2380303, 0.629517, 0.225586, -0.761963, 0.549316, -1.892090, -4.150391
2380323, 0.647949, 0.220703, -0.768677, 0.427246, -1.831055, -4.943848
2380343, 0.635742, 0.233887, -0.759033, 0.488281, -5.432129, -6.225588
2380363, 0.619873, 0.201782, -0.771118, 0.000000, -9.460449, -7.019045
2380383, 0.594849, 0.198853, -0.769531, -1.770020, -8.544922, -6.286623
2380403, 0.573486, 0.221924, -0.771973, -1.708985, -3.417970, -3.417970
2380423, 0.593140, 0.216064, -0.773560, -0.549316, 2.258301, -1.770020
2380443, 0.580200, 0.165039, -0.771118, -0.915528, 4.028320, -1.647950
2380463, 0.526733, 0.122314, -0.764282, -2.685547, 8.483887, 4.821777
2380483, 0.520142, 0.110596, -0.751587, -6.652834, 25.268562, 13.000492
2380503, 0.491577, 0.042114, -0.793091, -14.099125, 47.607437, 22.033691
2380523, 0.530640, -0.020630, -0.747803, -35.827637, 82.275391, 22.521980
2380543, 0.591187, -0.100342, -0.636963, -50.720230, 108.459503, 15.747074
2380563, 0.602905, -0.015259, -0.564819, -78.491211, 157.226563, 10.253906
2380583, 0.907471, 0.083130, -0.494141, -81.848145, 160.400391, 10.314941
2380603, 1.049194, 0.108521, -0.634033, -107.116730, 61.462418, 17.822266
2380623, 0.884399, 0.176392, -0.563843, -108.276398, 13.916019, 4.699707
2380663, 0.668823, 0.642090, -0.193848, -87.219238, 95.336945, 56.030289
2380683, 0.918457, 0.559814, -0.303223, -53.039566, 171.142578, 37.048340
2380703, 1.051270, 0.443604, -0.362183, -51.330582, 157.775879, 14.648441
2380723, 0.904541, 0.552734, -0.239258, -48.278824, 137.695313, 15.441898
2380743, 1.084473, 0.530273, -0.214600, -29.052742, 98.571808, 10.498047
2380763, 1.156128, 0.538818, -0.196655, -16.723633, 28.747566, -14.282230
2380783, 1.080444, 0.466431, -0.131836, -8.911133, -25.634773, -38.696289
2380803, 0.872437, 0.434204, -0.149780, -2.380371, -21.240234, -43.640137
2380823, 0.813477, 0.435059, -0.130249, 4.394531, -3.662110, -31.555183
2380843, 0.890381, 0.326294, -0.180908, 2.380371, -12.634281, -30.883797
2380863, 0.888672, 0.330688, -0.204834, -2.685547, -15.747074, -41.381836
2380883, 0.926270, 0.428101, -0.138672, 7.263186, -25.634773, -41.870117
2380903, 1.074097, 0.405762, -0.173340, 18.798828, -16.906738, -37.780762
2380923, 1.079956, 0.331421, -0.218018, 9.765625, -17.700195, -34.851074
2380943, 0.931030, 0.410889, -0.258789, 2.197266, -25.512703, -17.883301
2380963, 0.867065, 0.337891, -0.558960, -12.939457, -36.560059, -15.563969
2380983, 0.536743, 0.338745, -0.587769, -48.645035, -26.611336, 6.286623
2381003, 0.269653, 0.320068, -0.483643, -67.382813, 36.376953, 38.085938
2381023, 0.475342, 0.308960, -0.264160, -69.030762, 130.981445, 31.066902
2381083, 1.009155, 0.761963, 0.071045, -14.953617, 135.131836, 31.066902
2381103, 0.977783, 0.567505, 0.007935, 4.638672, 100.463898, 5.676271
2381123, 0.890747, 0.399048, 0.032837, 11.413578, 17.150879, -9.338379
2381143, 1.015503, 0.308472, 0.254517, 1.159668, -32.653809, -12.695316
2381163, 1.067749, 0.108398, 0.411621, 1.342773, -65.490723, -18.615723
2381183, 1.045288, -0.067383, 0.436890, 20.263672, -77.148438, -3.784181
2381203, 1.139038, 0.655396, -0.033691, 39.916992, -63.598648, 1.220703
2381223, 1.135010, 0.903687, -0.353149, 27.343758, -17.272949, -35.522461
2381243, 0.685791, 0.459961, -0.033691, 37.231445, -62.683121, -21.789551
2381263, 0.703857, 0.286865, -0.091553, 7.446291, -12.695316, -6.896975
2381283, 0.862061, -0.012573, -0.172607, -29.846199, 16.174316, 13.244633
2381303, 0.825684, 0.795166, -0.099365, 0.976563, -32.226563, 19.287109
2381323, 0.712036, 0.664551, 0.247803, 41.809082, -79.956055, 23.437508
2381343, 0.861816, 0.488281, 0.248657, 83.496094, -133.972168, 34.179688
2381363, 0.789307, 0.453491, 0.144165, 130.493164, -195.556702, 40.771484
2381423, 1.092285, 0.176758, -0.965942, 83.740234, -119.567902, 56.640640
2381443, 0.695801, 0.288574, -0.127808, 127.441437, -282.043457, 55.480972
2381463, 0.363892, 0.244629, 0.113037, 210.022034, -354.309204, 53.527847
2381483, 0.238281, 0.135986, 0.087280, 284.179688, -397.522095, 48.034683
2381503, 0.494385, -1.596191, -2.284790, 11.657719, 71.350098, -29.479988
2381523, 0.386719, 0.118530, -0.073608, -15.625004, -35.766602, -34.667969
2381543, 0.557251, -0.019897, -0.962769, 36.071777, 14.953617, -19.348145
2381563, 0.647095, -0.074707, -0.952637, 3.112794, -9.094238, -15.563969
2381583, 0.402100, -0.025635, -0.843018, 3.662110, -6.774904, -3.601075
2381603, 0.484619, -0.026489, -0.907349, 0.000000, -1.342773, -0.305176
2381623, 0.471680, -0.021362, -0.887085, 0.488281, -1.098633, -0.183106
2381643, 0.476807, -0.022095, -0.892456, 0.427246, -1.770020, -0.366211
2381663, 0.477173, -0.021240, -0.892578, 0.854492, -1.892090, -0.793457
2381683, 0.475342, -0.020508, -0.893433, 1.220703, -2.868653, -1.525879
2381703, 0.468018, -0.024170, -0.891968, 0.793457, -1.892090, -0.854492
2381723, 0.473877, -0.020996, -0.894897, 1.098633, -2.746582, -1.403809
2381743, 0.471436, -0.021729, -0.893555, 1.037598, -2.380371, -1.281738
2381763, 0.468140, -0.024292, -0.893921, 0.732422, -2.014160, -0.793457
2381823, 0.466309, -0.024536, -0.894531, 1.037598, -2.197266, -1.403809
2381843, 0.470337, -0.021362, -0.895508, 0.671387, -1.464844, -0.793457
2381863, 0.467163, -0.022949, -0.895630, 0.854492, -1.708985, -0.976563
2381883, 0.465576, -0.020996, -0.896851, 1.403809, -1.403809, -2.014160
2381903, 0.468872, -0.023804, -0.894531, 1.220703, -0.854492, -1.586915
2381923, 0.467407, -0.021851, -0.895996, 1.159668, -1.647950, -1.708985
2381943, 0.467163, -0.022339, -0.895752, 1.159668, -1.098633, -1.708985
2381963, 0.467041, -0.022339, -0.896362, 1.403809, -1.525879, -2.075195
2381983, 0.463257, -0.024780, -0.890991, 0.610352, -0.610352, -0.549316
2382003, 0.461304, -0.021118, -0.890137, 0.366211, -0.610352, -0.122070
2382023, 0.493286, -0.028687, -0.919434, 0.671387, -1.281738, 0.122070
2382043, 0.440918, -0.013672, -0.874390, 0.610352, -0.488281, 0.000000
2382063, 0.480835, -0.027710, -0.906982, -0.061035, -0.976563, -0.244141
2382083, 0.465088, -0.023682, -0.896484, 0.244141, -0.671387, -0.122070
2382103, 0.468994, -0.023682, -0.896973, 0.305176, -0.854492, -0.061035
2382123, 0.462402, -0.021118, -0.893799, 0.427246, -0.488281, -0.061035
2382143, 0.470093, -0.022583, -0.897705, 0.305176, -0.793457, -0.122070
2382243, 0.456055, -0.021729, -0.893433, 2.014160, 1.098633, -2.990724
2382263, 0.467041, -0.027832, -0.895752, 1.159668, -2.197266, -1.647950
2382283, 0.466431, -0.022583, -0.897827, 0.366211, -0.549316, -0.122070
2382303, 0.465210, -0.022705, -0.896973, 0.366211, -0.732422, -0.061035
2382323, 0.466064, -0.023071, -0.898682, 0.366211, -0.732422, -0.061035
2382343, 0.465576, -0.022949, -0.897583, 0.305176, -0.793457, -0.061035
2382363, 0.466064, -0.022827, -0.897217, 0.305176, -0.732422, -0.122070
2382383, 0.466187, -0.021973, -0.896606, 0.305176, -0.915528, -0.183106
2382403, 0.465942, -0.021973, -0.897217, 0.427246, -0.976563, -0.305176
2382423, 0.465820, -0.022461, -0.897949, 0.732422, -1.525879, -0.793457
2382443, 0.463989, -0.022705, -0.897217, 0.549316, -1.220703, -0.488281
2382463, 0.464844, -0.022339, -0.897339, 0.549316, -1.159668, -0.549316
2382483, 0.464111, -0.023560, -0.897461, 0.427246, -0.976563, -0.366211
2382503, 0.465210, -0.023560, -0.896973, 0.366211, -0.793457, -0.122070
2382523, 0.464478, -0.023071, -0.898071, 0.366211, -0.671387, -0.122070
2382563, 0.464722, -0.022461, -0.897827, 0.305176, -0.793457, -0.061035
2382603, 0.464355, -0.021973, -0.897461, 0.305176, -0.854492, -0.061035
2382623, 0.464355, -0.022705, -0.897827, 0.366211, -0.671387, -0.061035
2382643, 0.464966, -0.022461, -0.897339, 0.366211, -0.793457, -0.061035
2382663, 0.464844, -0.022827, -0.897095, 0.305176, -0.732422, -0.061035
2382683, 0.464111, -0.022583, -0.898926, 0.305176, -0.732422, -0.061035
2382703, 0.463989, -0.022217, -0.897095, 0.366211, -0.732422, -0.061035
2382723, 0.464722, -0.022217, -0.898926, 0.305176, -0.732422, -0.122070
2382743, 0.464600, -0.022461, -0.898804, 0.366211, -0.793457, -0.122070
2382763, 0.464233, -0.022461, -0.897949, 0.305176, -0.854492, -0.061035
2382783, 0.463867, -0.022949, -0.897949, 0.366211, -0.854492, -0.061035
2382803, 0.464722, -0.022583, -0.898071, 0.366211, -0.793457, -0.061035
2382823, 0.463867, -0.021362, -0.898560, 0.366211, -0.732422, -0.061035
2382843, 0.462524, -0.022583, -0.896606, 0.366211, -0.793457, -0.061035
2382863, 0.464722, -0.022949, -0.898315, 0.305176, -0.793457, -0.122070
2382883, 0.463623, -0.022461, -0.896729, 0.305176, -0.793457, -0.122070
2382903, 0.465820, -0.022217, -0.899780, 0.366211, -0.732422, -0.061035
2383003, 0.461060, -0.023804, -0.897095, 0.366211, -0.915528, -0.305176
2383023, 0.463501, -0.022339, -0.897949, 0.305176, -0.732422, -0.122070
2383043, 0.463501, -0.023071, -0.898926, 0.366211, -0.732422, -0.061035
2383063, 0.462524, -0.022095, -0.898071, 0.366211, -0.610352, -0.061035
2383083, 0.463257, -0.021973, -0.898438, 0.305176, -0.854492, -0.122070
2383103, 0.463257, -0.023071, -0.898193, 0.366211, -0.793457, -0.122070
2383123, 0.462646, -0.022461, -0.898193, 0.427246, -0.549316, -0.061035
2383143, 0.462891, -0.023193, -0.897949, 0.305176, -0.793457, -0.122070
2383163, 0.463623, -0.022583, -0.899292, 0.366211, -0.732422, -0.122070
2383183, 0.463379, -0.022583, -0.898193, 0.305176, -0.732422, -0.122070
2383203, 0.462769, -0.022339, -0.898071, 0.366211, -0.793457, -0.183106
2383223, 0.464111, -0.021729, -0.898926, 0.610352, -1.403809, -0.732422
2383243, 0.459839, -0.022339, -0.899292, 0.366211, -0.732422, -0.183106
2383263, 0.462158, -0.022949, -0.900146, 0.366211, -0.671387, -0.183106
2383283, 0.461060, -0.022339, -0.897827, 0.366211, -0.732422, -0.122070
2383323, 0.463745, -0.022583, -0.899414, 0.366211, -0.854492, -0.183106
2383343, 0.462280, -0.022705, -0.898682, 0.305176, -0.732422, -0.183106
2383363, 0.463135, -0.022583, -0.899658, 0.366211, -0.732422, -0.183106
2383383, 0.462036, -0.022339, -0.899292, 0.366211, -0.671387, -0.122070
2383403, 0.462402, -0.023071, -0.897949, 0.366211, -0.732422, -0.122070
2383423, 0.462402, -0.023071, -0.898926, 0.366211, -0.732422, -0.122070
2383443, 0.463501, -0.022705, -0.899902, 0.427246, -0.854492, -0.305176
2383463, 0.462036, -0.022949, -0.897461, 0.305176, -0.732422, -0.183106
2383483, 0.462280, -0.023193, -0.899536, 0.366211, -0.671387, -0.122070
2383503, 0.462769, -0.022827, -0.898315, 0.305176, -0.610352, -0.122070
2383523, 0.461670, -0.023193, -0.898682, 0.305176, -0.671387, -0.122070
2383543, 0.463623, -0.022949, -0.899414, 0.366211, -0.610352, -0.122070
2383563, 0.462158, -0.022949, -0.898560, 0.305176, -0.671387, -0.061035
2383583, 0.462036, -0.023193, -0.899048, 0.305176, -0.610352, -0.061035
2383603, 0.462524, -0.022949, -0.899780, 0.366211, -0.671387, -0.061035
2383623, 0.461060, -0.023560, -0.898315, 0.305176, -0.732422, -0.122070
2383643, 0.462646, -0.021729, -0.899658, 0.305176, -0.610352, -0.061035
2383663, 0.462158, -0.022217, -0.898682, 0.366211, -0.610352, -0.061035
2383763, 0.461426, -0.021851, -0.898315, 0.305176, -0.732422, -0.122070
2383783, 0.462646, -0.022705, -0.899902, 0.305176, -0.610352, -0.122070
2383803, 0.461304, -0.022095, -0.898682, 0.305176, -0.732422, -0.061035
2383823, 0.462280, -0.022583, -0.899414, 0.305176, -0.671387, -0.061035
2383843, 0.462402, -0.022705, -0.899292, 0.366211, -0.671387, -0.122070
2383863, 0.462280, -0.023560, -0.898315, 0.366211, -0.610352, -0.061035
2383883, 0.462891, -0.022827, -0.900146, 0.366211, -0.671387, -0.061035
2383903, 0.461426, -0.021851, -0.898682, 0.305176, -0.671387, -0.122070
2383923, 0.462769, -0.022461, -0.899658, 0.366211, -0.671387, -0.061035
2383943, 0.462036, -0.023071, -0.898560, 0.305176, -0.671387, -0.122070
2383963, 0.463013, -0.022217, -0.899658, 0.366211, -0.671387, -0.122070
2383983, 0.461792, -0.022461, -0.899536, 0.305176, -0.671387, -0.122070
2384003, 0.461792, -0.022217, -0.899414, 0.305176, -0.671387, -0.061035
2384023, 0.461670, -0.022461, -0.899292, 0.305176, -0.671387, -0.122070
2384043, 0.461914, -0.022461, -0.899048, 0.366211, -0.671387, -0.122070
2384083, 0.462158, -0.022461, -0.899170, 0.366211, -0.671387, -0.061035
2384103, 0.462280, -0.022827, -0.899780, 0.366211, -0.671387, -0.061035
2384123, 0.461670, -0.022949, -0.899170, 0.305176, -0.671387, -0.061035
2384143, 0.462524, -0.022705, -0.899414, 0.366211, -0.671387, -0.122070
2384163, 0.462891, -0.023193, -0.898682, 0.305176, -0.732422, -0.061035
2384183, 0.456543, -0.022217, -0.894775, 0.305176, -0.610352, -0.122070
2384203, 0.469482, -0.024414, -0.905273, 0.305176, -0.671387, -0.061035
2384223, 0.457642, -0.021973, -0.896606, 0.366211, -0.610352, -0.061035
2384243, 0.463745, -0.023682, -0.900269, 0.305176, -0.671387, -0.122070
2384263, 0.462036, -0.021851, -0.898682, 0.305176, -0.732422, -0.122070
2384283, 0.463013, -0.022705, -0.899902, 0.366211, -0.610352, -0.061035
2384303, 0.461060, -0.022949, -0.897461, 0.305176, -0.732422, -0.122070
2384323, 0.463745, -0.022705, -0.900024, 0.366211, -0.671387, -0.061035
2384343, 0.460938, -0.022461, -0.897827, 0.366211, -0.610352, -0.122070
2384363, 0.462524, -0.022583, -0.899536, 0.305176, -0.732422, -0.122070
2384383, 0.461060, -0.023193, -0.898682, 0.305176, -0.671387, -0.061035
2384403, 0.462646, -0.023071, -0.899292, 0.305176, -0.671387, -0.061035
2384423, 0.460938, -0.022705, -0.899902, 0.366211, -0.732422, -0.061035
2384443, 0.461182, -0.022217, -0.899780, 0.305176, -0.671387, -0.061035
2384483, 0.461792, -0.022827, -0.899292, 0.366211, -0.671387, -0.061035
2384503, 0.461548, -0.022705, -0.899170, 0.366211, -0.671387, -0.122070
2384523, 0.462036, -0.022339, -0.898560, 0.305176, -0.671387, -0.061035
2384543, 0.461914, -0.023926, -0.899536, 0.305176, -0.610352, -0.061035
2384563, 0.461182, -0.022461, -0.898926, 0.305176, -0.671387, -0.061035
2384583, 0.461426, -0.022949, -0.899780, 0.305176, -0.671387, -0.122070
2384603, 0.462646, -0.023315, -0.899902, 0.366211, -0.732422, -0.061035
2384623, 0.460327, -0.022339, -0.898315, 0.305176, -0.671387, -0.061035
2384643, 0.462036, -0.022827, -0.900635, 0.366211, -0.671387, -0.061035
2384663, 0.460327, -0.022827, -0.898315, 0.366211, -0.732422, -0.061035
2384683, 0.461914, -0.022339, -0.899292, 0.305176, -0.671387, -0.122070
2384703, 0.462036, -0.022095, -0.899414, 0.305176, -0.732422, -0.061035
2384723, 0.462158, -0.022583, -0.899292, 0.305176, -0.671387, -0.061035
2384743, 0.461304, -0.023193, -0.898193, 0.305176, -0.732422, -0.122070
2384763, 0.461792, -0.023193, -0.899780, 0.305176, -0.610352, -0.061035
2384783, 0.461914, -0.022949, -0.901123, 0.366211, -0.671387, -0.061035
2384803, 0.460571, -0.021973, -0.898682, 0.305176, -0.732422, -0.061035
2384823, 0.462158, -0.022949, -0.900391, 0.366211, -0.671387, -0.122070
2384843, 0.462036, -0.021118, -0.899170, 0.366211, -0.732422, -0.122070
2384903, 0.462158, -0.022461, -0.899536, 0.305176, -0.671387, -0.061035
2384923, 0.460938, -0.022705, -0.899658, 0.366211, -0.671387, -0.061035
2384943, 0.461792, -0.022095, -0.899536, 0.305176, -0.671387, -0.061035
2384963, 0.461914, -0.022827, -0.899292, 0.366211, -0.671387, -0.061035
2384983, 0.461426, -0.022705, -0.900269, 0.305176, -0.671387, -0.061035
2385003, 0.462036, -0.022583, -0.900146, 0.366211, -0.671387, -0.061035
2385023, 0.460693, -0.023315, -0.898438, 0.305176, -0.671387, -0.061035
2385043, 0.461670, -0.022339, -0.900391, 0.305176, -0.671387, -0.061035
2385063, 0.460083, -0.023438, -0.899170, 0.305176, -0.732422, -0.122070
2385083, 0.461792, -0.022339, -0.899292, 0.305176, -0.610352, -0.122070
2385103, 0.462036, -0.022217, -0.898926, 0.366211, -0.671387, -0.061035
2385123, 0.461426, -0.023315, -0.899170, 0.305176, -0.671387, -0.061035
2385143, 0.462158, -0.022827, -0.899048, 0.305176, -0.671387, -0.061035
2385163, 0.461426, -0.022705, -0.900269, 0.366211, -0.671387, -0.061035
2385183, 0.461914, -0.022583, -0.899170, 0.305176, -0.671387, -0.122070
2385223, 0.461914, -0.022827, -0.901001, 0.366211, -0.610352, -0.061035
2385243, 0.461426, -0.022583, -0.899658, 0.305176, -0.671387, -0.122070
2385263, 0.460693, -0.022461, -0.898926, 0.305176, -0.671387, -0.122070
2385283, 0.462769, -0.023071, -0.900635, 0.366211, -0.610352, -0.061035
2385303, 0.462402, -0.022095, -0.900635, 0.305176, -0.671387, -0.061035
2385323, 0.461548, -0.021851, -0.898804, 0.366211, -0.671387, -0.122070
2385343, 0.461792, -0.022949, -0.899170, 0.366211, -0.610352, -0.061035
2385363, 0.461304, -0.022461, -0.899292, 0.305176, -0.671387, -0.061035
2385383, 0.461792, -0.022583, -0.898926, 0.244141, -0.610352, -0.122070
2385403, 0.460938, -0.023804, -0.899048, 0.305176, -0.671387, -0.122070
2385423, 0.462891, -0.023560, -0.900879, 0.305176, -0.610352, -0.061035
2385443, 0.461182, -0.021973, -0.898804, 0.366211, -0.671387, -0.061035
2385463, 0.462036, -0.022461, -0.900635, 0.366211, -0.610352, -0.061035
2385483, 0.461304, -0.021973, -0.899902, 0.366211, -0.671387, -0.061035
2385503, 0.461426, -0.021973, -0.898926, 0.366211, -0.671387, -0.061035
2385523, 0.461304, -0.022705, -0.899658, 0.305176, -0.610352, -0.061035
2385543, 0.461304, -0.022827, -0.898926, 0.305176, -0.671387, -0.122070
2385563, 0.461792, -0.023438, -0.899658, 0.244141, -0.671387, -0.122070
2385583, 0.461914, -0.022217, -0.899902, 0.305176, -0.610352, -0.122070
2385603, 0.461182, -0.022705, -0.899780, 0.305176, -0.671387, -0.061035
2385623, 0.461426, -0.022949, -0.899292, 0.305176, -0.610352, -0.061035
2385643, 0.461548, -0.021851, -0.899048, 0.305176, -0.671387, -0.061035
2385663, 0.460938, -0.023438, -0.899536, 0.366211, -0.671387, -0.061035
2385683, 0.460693, -0.021973, -0.899414, 0.305176, -0.671387, -0.061035
2385703, 0.461548, -0.022339, -0.899902, 0.305176, -0.671387, -0.061035
2385723, 0.461548, -0.022095, -0.899170, 0.305176, -0.732422, -0.122070
2385743, 0.462158, -0.023071, -0.899048, 0.366211, -0.610352, -0.061035
2385763, 0.461304, -0.022461, -0.898682, 0.305176, -0.610352, -0.061035
2385783, 0.461670, -0.023193, -0.899414, 0.366211, -0.610352, -0.061035
2385803, 0.461182, -0.023071, -0.899780, 0.305176, -0.671387, -0.122070
2385823, 0.462158, -0.022217, -0.899902, 0.305176, -0.671387, -0.061035
2385843, 0.460938, -0.022095, -0.900269, 0.366211, -0.610352, -0.061035
2385863, 0.461792, -0.023071, -0.899658, 0.305176, -0.610352, -0.122070
2385883, 0.461670, -0.022705, -0.898926, 0.305176, -0.610352, -0.061035
2385903, 0.461426, -0.022827, -0.899536, 0.305176, -0.610352, -0.061035
2385923, 0.460449, -0.022461, -0.899048, 0.305176, -0.610352, -0.122070
2385943, 0.460938, -0.021973, -0.899658, 0.305176, -0.671387, -0.061035
2385963, 0.461304, -0.022949, -0.900757, 0.305176, -0.671387, -0.061035
2386003, 0.462402, -0.023315, -0.899536, 0.305176, -0.671387, -0.061035
2386023, 0.460083, -0.022339, -0.898438, 0.366211, -0.732422, -0.061035
2386043, 0.462891, -0.022827, -0.900269, 0.305176, -0.610352, -0.061035
2386063, 0.461792, -0.022827, -0.899658, 0.366211, -0.671387, -0.061035
2386083, 0.461182, -0.022583, -0.899536, 0.305176, -0.671387, -0.122070
2386103, 0.461304, -0.022217, -0.900146, 0.366211, -0.610352, -0.061035
2386123, 0.461060, -0.022583, -0.899414, 0.305176, -0.671387, -0.061035
2386143, 0.461914, -0.022583, -0.899658, 0.366211, -0.671387, -0.061035
2386163, 0.460815, -0.023193, -0.898438, 0.366211, -0.671387, -0.061035
2386183, 0.461426, -0.022217, -0.900146, 0.366211, -0.671387, -0.061035
2386203, 0.460571, -0.022705, -0.898560, 0.305176, -0.732422, -0.122070
2386223, 0.461914, -0.022461, -0.899658, 0.366211, -0.610352, -0.061035
2386243, 0.459839, -0.023438, -0.899048, 0.305176, -0.610352, -0.061035
2386263, 0.461670, -0.022705, -0.900269, 0.305176, -0.671387, -0.122070
2386283, 0.461182, -0.023315, -0.900146, 0.366211, -0.610352, -0.061035
2386303, 0.460693, -0.023560, -0.899048, 0.366211, -0.671387, -0.061035
2386323, 0.461670, -0.022827, -0.899536, 0.366211, -0.671387, -0.122070
2386344, 0.461182, -0.021851, -0.898926, 0.366211, -0.671387, -0.061035
2386384, 0.461060, -0.022949, -0.899292, 0.305176, -0.671387, -0.061035
2386404, 0.461792, -0.022583, -0.899536, 0.366211, -0.671387, -0.061035
2386424, 0.462036, -0.023560, -0.900879, 0.305176, -0.610352, -0.061035
2386444, 0.461182, -0.023193, -0.898804, 0.305176, -0.671387, -0.061035
2386464, 0.461060, -0.022217, -0.899902, 0.366211, -0.671387, -0.061035
2386484, 0.462402, -0.022339, -0.901855, 0.305176, -0.671387, -0.061035
2386504, 0.456177, -0.021240, -0.892700, 0.183106, -0.976563, -0.183106
2386524, 0.468262, -0.024780, -0.905273, 0.305176, -0.793457, -0.061035
2386544, 0.459717, -0.021240, -0.899292, 0.549316, -0.366211, 0.000000
2386564, 0.458618, -0.021606, -0.895264, 0.183106, -0.915528, -0.183106
2386584, 0.463501, -0.023560, -0.900879, 0.244141, -0.915528, -0.122070
2386604, 0.460693, -0.023315, -0.901123, 0.244141, -0.793457, -0.122070
2386624, 0.461548, -0.022827, -0.899170, 0.366211, -0.671387, -0.061035
2386644, 0.460938, -0.023071, -0.899292, 0.305176, -0.610352, -0.061035
2386664, 0.460693, -0.022949, -0.899780, 0.305176, -0.671387, -0.061035
2386744, 0.460693, -0.022461, -0.899414, 0.305176, -0.610352, -0.061035
2386764, 0.461182, -0.022827, -0.899170, 0.305176, -0.671387, -0.122070
2386784, 0.462036, -0.022339, -0.899536, 0.305176, -0.610352, -0.122070
2386804, 0.461182, -0.022705, -0.899170, 0.305176, -0.732422, -0.061035
2386824, 0.460938, -0.022217, -0.899780, 0.366211, -0.671387, -0.061035
2386844, 0.460693, -0.022339, -0.899170, 0.305176, -0.671387, -0.061035
2386864, 0.460815, -0.023071, -0.899780, 0.305176, -0.671387, -0.061035
2386884, 0.460815, -0.022583, -0.898560, 0.305176, -0.671387, -0.061035
2386904, 0.460693, -0.023071, -0.899902, 0.244141, -0.671387, -0.122070
2386924, 0.460938, -0.021973, -0.899536, 0.305176, -0.671387, -0.061035
2386944, 0.462402, -0.022339, -0.900269, 0.305176, -0.671387, -0.061035
2386964, 0.460815, -0.022461, -0.898804, 0.366211, -0.671387, -0.061035
2386984, 0.462158, -0.022583, -0.898315, 0.305176, -0.671387, -0.061035
2387004, 0.462158, -0.022583, -0.900635, 0.366211, -0.610352, -0.061035
2387024, 0.460449, -0.022461, -0.898315, 0.305176, -0.732422, -0.061035
2387044, 0.461792, -0.022339, -0.900146, 0.305176, -0.610352, -0.061035
2387064, 0.460327, -0.023315, -0.898560, 0.366211, -0.732422, -0.061035
2387084, 0.462280, -0.023071, -0.900513, 0.366211, -0.610352, -0.061035
2387104, 0.461548, -0.021973, -0.898438, 0.305176, -0.732422, -0.122070
2387164, 0.462158, -0.022827, -0.900757, 0.305176, -0.549316, -0.061035
2387184, 0.461792, -0.022583, -0.900391, 0.366211, -0.671387, -0.061035
2387204, 0.460449, -0.022949, -0.899292, 0.305176, -0.671387, -0.122070
2387224, 0.461670, -0.022461, -0.900879, 0.366211, -0.671387, -0.061035
2387244, 0.460449, -0.022705, -0.897827, 0.305176, -0.732422, -0.061035
2387264, 0.462036, -0.022339, -0.899902, 0.305176, -0.549316, -0.061035
2387284, 0.461182, -0.022461, -0.899292, 0.305176, -0.671387, -0.061035
2387304, 0.461670, -0.023560, -0.899780, 0.305176, -0.549316, -0.061035
2387324, 0.461548, -0.023071, -0.898804, 0.305176, -0.671387, -0.061035
2387344, 0.461060, -0.022827, -0.899414, 0.305176, -0.610352, -0.061035
2387364, 0.462036, -0.022339, -0.900024, 0.305176, -0.671387, -0.061035
2387384, 0.461426, -0.022949, -0.898926, 0.305176, -0.671387, -0.061035
2387404, 0.461670, -0.022827, -0.899780, 0.305176, -0.671387, -0.122070
2387424, 0.460938, -0.022583, -0.899780, 0.305176, -0.671387, -0.061035
2387444, 0.461182, -0.023071, -0.899414, 0.366211, -0.671387, -0.061035
2387464, 0.461426, -0.023438, -0.899658, 0.305176, -0.671387, -0.061035
2387544, 0.461792, -0.022217, -0.899414, 0.366211, -0.610352, -0.061035
2387564, 0.461304, -0.022217, -0.898071, 0.305176, -0.732422, -0.122070
2387584, 0.462769, -0.023071, -0.900391, 0.305176, -0.610352, -0.061035
2387604, 0.461060, -0.022583, -0.899414, 0.305176, -0.671387, -0.061035
2387624, 0.462036, -0.023193, -0.900146, 0.305176, -0.549316, -0.061035
2387644, 0.460938, -0.022705, -0.900024, 0.305176, -0.671387, -0.061035
2387664, 0.461304, -0.023315, -0.899170, 0.305176, -0.671387, -0.061035
2387684, 0.461304, -0.023560, -0.899536, 0.305176, -0.610352, -0.122070
2387704, 0.461304, -0.022339, -0.899414, 0.305176, -0.671387, -0.061035
2387724, 0.461304, -0.022461, -0.899902, 0.305176, -0.610352, -0.061035
2387744, 0.461914, -0.023071, -0.899902, 0.366211, -0.610352, -0.061035
2387764, 0.460693, -0.022705, -0.898560, 0.366211, -0.610352, -0.061035
2387784, 0.462769, -0.022827, -0.899902, 0.305176, -0.610352, -0.061035
2387804, 0.460083, -0.022949, -0.898438, 0.305176, -0.671387, -0.122070
2387824, 0.462158, -0.022949, -0.899780, 0.305176, -0.610352, -0.061035
2387844, 0.460571, -0.021973, -0.899292, 0.305176, -0.671387, -0.061035
2387864, 0.461060, -0.022583, -0.900513, 0.305176, -0.610352, -0.061035
2387884, 0.461182, -0.023193, -0.899780, 0.366211, -0.671387, -0.122070
2387904, 0.461182, -0.023193, -0.899414, 0.305176, -0.671387, -0.061035
2387924, 0.462524, -0.022827, -0.899414, 0.366211, -0.671387, -0.061035
2387944, 0.460327, -0.023071, -0.898560, 0.305176, -0.610352, -0.061035
2387964, 0.461548, -0.022583, -0.899780, 0.305176, -0.671387, -0.061035
2387984, 0.460938, -0.022583, -0.900269, 0.305176, -0.610352, -0.061035
2388004, 0.461060, -0.023071, -0.899902, 0.305176, -0.671387, -0.061035
2388024, 0.461426, -0.022949, -0.898804, 0.305176, -0.671387, -0.061035
2388044, 0.462524, -0.022949, -0.900391, 0.305176, -0.671387, -0.061035
2388064, 0.460938, -0.022461, -0.899048, 0.305176, -0.671387, -0.061035
2388084, 0.460449, -0.023071, -0.899780, 0.305176, -0.671387, -0.061035
2388104, 0.461792, -0.023193, -0.899902, 0.305176, -0.671387, -0.122070
2388124, 0.462402, -0.023315, -0.901611, 0.305176, -0.610352, -0.122070
2388144, 0.460571, -0.021851, -0.898560, 0.305176, -0.610352, -0.061035
2388164, 0.462280, -0.022949, -0.901611, 0.305176, -0.671387, -0.061035
2388184, 0.459473, -0.022827, -0.898193, 0.366211, -0.671387, -0.122070
2388204, 0.462280, -0.023315, -0.900269, 0.366211, -0.610352, -0.061035
2388224, 0.460205, -0.022583, -0.898315, 0.366211, -0.671387, -0.061035
2388264, 0.461548, -0.023315, -0.899414, 0.305176, -0.732422, -0.061035
2388304, 0.461182, -0.021973, -0.899414, 0.366211, -0.671387, -0.061035
2388324, 0.461792, -0.022583, -0.899902, 0.366211, -0.671387, -0.061035
2388344, 0.461426, -0.022583, -0.899658, 0.305176, -0.671387, -0.061035
2388364, 0.462524, -0.022949, -0.900635, 0.366211, -0.671387, -0.061035
2388384, 0.460815, -0.022705, -0.898926, 0.305176, -0.732422, -0.122070
2388404, 0.461182, -0.022217, -0.898804, 0.366211, -0.610352, -0.061035
2388424, 0.461548, -0.023071, -0.898804, 0.305176, -0.732422, -0.061035
2388444, 0.461426, -0.022949, -0.900391, 0.366211, -0.671387, -0.061035
2388464, 0.460693, -0.021851, -0.899658, 0.305176, -0.732422, -0.122070
2388484, 0.460449, -0.022461, -0.899658, 0.305176, -0.610352, -0.061035
2388504, 0.461426, -0.023071, -0.898804, 0.305176, -0.732422, -0.122070
2388524, 0.461914, -0.022827, -0.899414, 0.366211, -0.610352, -0.061035
2388544, 0.461182, -0.022949, -0.900391, 0.366211, -0.671387, -0.061035
2388564, 0.460693, -0.022095, -0.899170, 0.366211, -0.671387, -0.061035
2388584, 0.461548, -0.024048, -0.899292, 0.366211, -0.671387, -0.061035
2388604, 0.461426, -0.022583, -0.899658, 0.366211, -0.610352, -0.061035
2388664, 0.460815, -0.021606, -0.900757, 0.427246, -0.244141, 0.000000
2388684, 0.468506, -0.025024, -0.903809, 0.183106, -1.098633, -0.122070
2388704, 0.464478, -0.024536, -0.903931, 0.427246, -0.305176, 0.000000
2388724, 0.461548, -0.022949, -0.900146, 0.366211, -0.671387, -0.061035
2388744, 0.460449, -0.022461, -0.897583, 0.305176, -0.488281, -0.061035
2388764, 0.462280, -0.023315, -0.900024, 0.366211, -0.671387, -0.061035
2388784, 0.461060, -0.022461, -0.898926, 0.366211, -0.488281, -0.061035
2388804, 0.463867, -0.022583, -0.901489, 0.305176, -0.610352, -0.061035
2388824, 0.462158, -0.022827, -0.898804, 0.366211, -0.671387, -0.061035
2388844, 0.461670, -0.022339, -0.898560, 0.366211, -0.671387, -0.061035
2388864, 0.461182, -0.022461, -0.899902, 0.305176, -0.610352, -0.122070
2388884, 0.461914, -0.023682, -0.900146, 0.305176, -0.671387, -0.122070
2388904, 0.461426, -0.023682, -0.898438, 0.305176, -0.671387, -0.061035
2388924, 0.461792, -0.022827, -0.898804, 0.305176, -0.671387, -0.061035
2388944, 0.462158, -0.023560, -0.901001, 0.305176, -0.610352, -0.061035
2388964, 0.461182, -0.022095, -0.899048, 0.305176, -0.732422, -0.061035
2388984, 0.461548, -0.023682, -0.899170, 0.305176, -0.610352, -0.061035
2389044, 0.462524, -0.022583, -0.898926, 0.305176, -0.610352, -0.061035
2389064, 0.462158, -0.023438, -0.900513, 0.244141, -0.610352, -0.122070
2389084, 0.461792, -0.022461, -0.899048, 0.305176, -0.671387, -0.061035
2389104, 0.461914, -0.021851, -0.900146, 0.366211, -0.610352, -0.061035
2389124, 0.462280, -0.022827, -0.899414, 0.305176, -0.732422, -0.061035
2389144, 0.461792, -0.021973, -0.899902, 0.305176, -0.671387, -0.122070
2389164, 0.462158, -0.022827, -0.899414, 0.305176, -0.610352, -0.122070
2389184, 0.461548, -0.022949, -0.899780, 0.305176, -0.671387, -0.122070
2389204, 0.460449, -0.022949, -0.897949, 0.244141, -0.671387, -0.061035
2389224, 0.461304, -0.022705, -0.898804, 0.366211, -0.610352, -0.061035
2389244, 0.463379, -0.022827, -0.900513, 0.244141, -0.732422, -0.122070
2389264, 0.464844, -0.022949, -0.903076, 0.244141, -0.671387, -0.122070
2389284, 0.458618, -0.021606, -0.898193, 0.366211, -0.671387, -0.061035
2389304, 0.461792, -0.022949, -0.900391, 0.183106, -0.671387, -0.122070
2389324, 0.461304, -0.022583, -0.900024, 0.305176, -0.610352, -0.061035
2389344, 0.461304, -0.022461, -0.898071, 0.305176, -0.671387, -0.061035
2389364, 0.463379, -0.023315, -0.901978, 0.305176, -0.549316, -0.061035
2389424, 0.460693, -0.022949, -0.898682, 0.305176, -0.732422, -0.122070
2389444, 0.461670, -0.022705, -0.899292, 0.366211, -0.610352, -0.061035
2389464, 0.462524, -0.023193, -0.899658, 0.305176, -0.610352, -0.061035
2389484, 0.461548, -0.022095, -0.898315, 0.305176, -0.732422, -0.061035
2389504, 0.461060, -0.023438, -0.899170, 0.305176, -0.732422, -0.122070
2389524, 0.463623, -0.023315, -0.901367, 0.366211, -0.549316, -0.061035
2389544, 0.459839, -0.022705, -0.896729, 0.305176, -0.732422, -0.061035
2389564, 0.462891, -0.023315, -0.900879, 0.366211, -0.671387, -0.061035
2389584, 0.461060, -0.022583, -0.899536, 0.427246, -0.549316, -0.061035
2389604, 0.460083, -0.021484, -0.898071, 0.366211, -0.610352, -0.061035
2389624, 0.463257, -0.023560, -0.901367, 0.244141, -0.732422, -0.122070
2389644, 0.462280, -0.023071, -0.899902, 0.366211, -0.610352, -0.061035
2389664, 0.461182, -0.022827, -0.898926, 0.366211, -0.671387, -0.061035
2389684, 0.461548, -0.022461, -0.898560, 0.305176, -0.610352, -0.122070
2389704, 0.462524, -0.022583, -0.900513, 0.305176, -0.610352, -0.122070
2389724, 0.461182, -0.022461, -0.898560, 0.366211, -0.671387, -0.122070
2389744, 0.462646, -0.022461, -0.899536, 0.366211, -0.671387, -0.061035
2389844, 0.461792, -0.021729, -0.899536, 0.305176, -0.610352, -0.061035
2389864, 0.462280, -0.022827, -0.900879, 0.244141, -0.610352, -0.122070
2389884, 0.461670, -0.023315, -0.898315, 0.305176, -0.671387, -0.061035
2389904, 0.461670, -0.022827, -0.899414, 0.305176, -0.671387, -0.061035
2389924, 0.461914, -0.022461, -0.899414, 0.305176, -0.610352, -0.122070
2389944, 0.462036, -0.023071, -0.899414, 0.366211, -0.610352, -0.061035
2389964, 0.460449, -0.023071, -0.898071, 0.305176, -0.610352, -0.061035
2389984, 0.461426, -0.022339, -0.899414, 0.305176, -0.732422, -0.061035
2390004, 0.461914, -0.023071, -0.901733, 0.366211, -0.610352, -0.061035
2390024, 0.460693, -0.022705, -0.899170, 0.366211, -0.610352, -0.061035
2390044, 0.462158, -0.022827, -0.899658, 0.305176, -0.671387, -0.122070
2390064, 0.461914, -0.023071, -0.899780, 0.366211, -0.549316, -0.061035
2390084, 0.461914, -0.022583, -0.898926, 0.305176, -0.671387, -0.061035
2390104, 0.460815, -0.022705, -0.899902, 0.366211, -0.610352, -0.061035
2390124, 0.461182, -0.023438, -0.899292, 0.305176, -0.671387, -0.061035
2390144, 0.461426, -0.022827, -0.898804, 0.305176, -0.671387, -0.122070
2390164, 0.461792, -0.023193, -0.899414, 0.366211, -0.671387, -0.061035
2390184, 0.460815, -0.022339, -0.899414, 0.366211, -0.671387, -0.061035
2390204, 0.462036, -0.022949, -0.899292, 0.305176, -0.671387, -0.061035
2390224, 0.461670, -0.022949, -0.899780, 0.305176, -0.671387, -0.061035
2390244, 0.462158, -0.022583, -0.899414, 0.366211, -0.671387, 0.000000
2390264, 0.461792, -0.022583, -0.900513, 0.366211, -0.610352, -0.061035
2390284, 0.461304, -0.023071, -0.898560, 0.305176, -0.671387, -0.061035
2390304, 0.461304, -0.022827, -0.898560, 0.305176, -0.671387, -0.122070
2390324, 0.461670, -0.022949, -0.899780, 0.305176, -0.671387, -0.061035
2390344, 0.461670, -0.023071, -0.899414, 0.305176, -0.671387, -0.061035
2390364, 0.460693, -0.022583, -0.899292, 0.366211, -0.671387, -0.061035
2390384, 0.460693, -0.022461, -0.899536, 0.305176, -0.610352, -0.061035
2390404, 0.461914, -0.022827, -0.899048, 0.305176, -0.732422, -0.122070
2390424, 0.460815, -0.023438, -0.899292, 0.366211, -0.610352, 0.000000
2390444, 0.462769, -0.023682, -0.900391, 0.305176, -0.732422, -0.122070
2390464, 0.460083, -0.022827, -0.898926, 0.305176, -0.671387, -0.061035
2390484, 0.461548, -0.021973, -0.900269, 0.305176, -0.671387, -0.122070
2390504, 0.461426, -0.023193, -0.899902, 0.366211, -0.610352, -0.061035
2390524, 0.462524, -0.022949, -0.899780, 0.366211, -0.671387, -0.122070
2390584, 0.461304, -0.022217, -0.898682, 0.305176, -0.610352, -0.122070
2390624, 0.462158, -0.022339, -0.900146, 0.366211, -0.671387, -0.061035
2390644, 0.461426, -0.022705, -0.899292, 0.305176, -0.671387, -0.061035
2390664, 0.460327, -0.022217, -0.898804, 0.244141, -0.671387, -0.061035
2390684, 0.462769, -0.022949, -0.900146, 0.305176, -0.610352, -0.061035
2390704, 0.461548, -0.022705, -0.898926, 0.244141, -0.671387, -0.061035
2390724, 0.463989, -0.023682, -0.901978, 0.305176, -0.610352, -0.061035
2390744, 0.460693, -0.022827, -0.897705, 0.366211, -0.610352, -0.061035
2390764, 0.462891, -0.023193, -0.899658, 0.244141, -0.671387, -0.122070
2390784, 0.462891, -0.023682, -0.902222, 0.305176, -0.610352, -0.061035
2390804, 0.460693, -0.022827, -0.898071, 0.366211, -0.671387, -0.061035
2390824, 0.462158, -0.023315, -0.900024, 0.305176, -0.610352, -0.122070
2390844, 0.460938, -0.022461, -0.898926, 0.305176, -0.671387, -0.061035
2390864, 0.462280, -0.023071, -0.899658, 0.305176, -0.671387, -0.061035
2390884, 0.461670, -0.022827, -0.898804, 0.305176, -0.671387, -0.061035
2390964, 0.461670, -0.023315, -0.898804, 0.305176, -0.610352, -0.061035
2390984, 0.462158, -0.023071, -0.899414, 0.305176, -0.671387, -0.122070
2391004, 0.461792, -0.022217, -0.900513, 0.305176, -0.610352, -0.061035
2391024, 0.461182, -0.022583, -0.898926, 0.305176, -0.671387, -0.122070
2391044, 0.462280, -0.022095, -0.900757, 0.305176, -0.488281, -0.061035
2391064, 0.459961, -0.022461, -0.897095, 0.183106, -0.976563, -0.183106
2391084, 0.463135, -0.023804, -0.901245, 0.305176, -0.610352, -0.061035
2391104, 0.461060, -0.022949, -0.899170, 0.366211, -0.732422, -0.122070
2391124, 0.459961, -0.022217, -0.899536, 0.366211, -0.549316, -0.122070
2391144, 0.461670, -0.023193, -0.899658, 0.305176, -0.610352, -0.122070
2391164, 0.461304, -0.022339, -0.898926, 0.305176, -0.610352, -0.061035
2391184, 0.462524, -0.023193, -0.900635, 0.366211, -0.671387, -0.061035
2391204, 0.460938, -0.022705, -0.898560, 0.366211, -0.610352, -0.061035
2391224, 0.462891, -0.022827, -0.899902, 0.244141, -0.732422, -0.122070
2391244, 0.461670, -0.022827, -0.899536, 0.305176, -0.610352, -0.061035
2391264, 0.461914, -0.023438, -0.898193, 0.305176, -0.610352, -0.061035
2391284, 0.461914, -0.022583, -0.899414, 0.305176, -0.671387, -0.061035
2391304, 0.462158, -0.022583, -0.900269, 0.366211, -0.671387, -0.061035
2391324, 0.459961, -0.022217, -0.898193, 0.305176, -0.610352, -0.122070
2391344, 0.461670, -0.023560, -0.898804, 0.244141, -0.732422, -0.122070
2391364, 0.462524, -0.023315, -0.899658, 0.305176, -0.671387, -0.122070
2391384, 0.462402, -0.023682, -0.899658, 0.305176, -0.671387, -0.061035
2391404, 0.460693, -0.022827, -0.898071, 0.305176, -0.610352, -0.122070
2391424, 0.463379, -0.023926, -0.900146, 0.305176, -0.671387, -0.122070
2391444, 0.461182, -0.022583, -0.898804, 0.305176, -0.610352, -0.061035
2391464, 0.461792, -0.023438, -0.899414, 0.305176, -0.610352, -0.061035
2391484, 0.462280, -0.023193, -0.899292, 0.366211, -0.610352, -0.061035
2391504, 0.461914, -0.022827, -0.898315, 0.305176, -0.793457, -0.061035
2391524, 0.463501, -0.022705, -0.901855, 0.488281, -0.427246, 0.000000
2391544, 0.461304, -0.022827, -0.899170, 0.366211, -0.610352, -0.061035
2391564, 0.462280, -0.023071, -0.899048, 0.366211, -0.610352, -0.122070
2391584, 0.461060, -0.023682, -0.898315, 0.305176, -0.671387, -0.061035
2391604, 0.462036, -0.023560, -0.899292, 0.305176, -0.610352, -0.122070
2391624, 0.460693, -0.022705, -0.898438, 0.305176, -0.610352, -0.061035
2391644, 0.461914, -0.023315, -0.900513, 0.305176, -0.610352, -0.061035
2391704, 0.461548, -0.022461, -0.899048, 0.305176, -0.671387, -0.122070
2391724, 0.462402, -0.022949, -0.898926, 0.366211, -0.610352, -0.061035
2391744, 0.461792, -0.022705, -0.899170, 0.305176, -0.671387, -0.061035
2391764, 0.462402, -0.022949, -0.899414, 0.305176, -0.610352, -0.061035
2391784, 0.462280, -0.022583, -0.899292, 0.366211, -0.671387, -0.122070
2391804, 0.462280, -0.022949, -0.899048, 0.305176, -0.610352, -0.122070
2391824, 0.463013, -0.022461, -0.899658, 0.366211, -0.671387, -0.061035
2391844, 0.461548, -0.022827, -0.898560, 0.305176, -0.671387, -0.061035
2391864, 0.461670, -0.022461, -0.899536, 0.305176, -0.671387, -0.061035
2391884, 0.464111, -0.023193, -0.903442, 0.305176, -0.610352, -0.061035
2391904, 0.454468, -0.021729, -0.889282, 0.122070, -1.281738, -0.244141
2391924, 0.462402, -0.023193, -0.897949, 0.061035, -0.976563, -0.183106
2391944, 0.461060, -0.023315, -0.901001, 0.366211, -0.549316, 0.000000
2391964, 0.463867, -0.022339, -0.900879, 0.366211, -0.610352, -0.061035
2391984, 0.459595, -0.023315, -0.896851, 0.244141, -0.793457, -0.122070
2392004, 0.463379, -0.023438, -0.900146, 0.305176, -0.793457, -0.122070
2392024, 0.463013, -0.022827, -0.900391, 0.366211, -0.610352, 0.000000
2392044, 0.459229, -0.021606, -0.898315, 0.305176, -0.671387, -0.061035
2392084, 0.461060, -0.022583, -0.897949, 0.366211, -0.671387, -0.061035
2392124, 0.461182, -0.023071, -0.899658, 0.366211, -0.610352, -0.061035
2392144, 0.461670, -0.023071, -0.899170, 0.305176, -0.671387, -0.061035
2392164, 0.462158, -0.022583, -0.899780, 0.366211, -0.671387, -0.061035
2392184, 0.461670, -0.022827, -0.898682, 0.366211, -0.732422, -0.061035
2392204, 0.463257, -0.022827, -0.900879, 0.366211, -0.610352, -0.061035
2392224, 0.460815, -0.022949, -0.897827, 0.244141, -0.793457, -0.122070
2392244, 0.462036, -0.023193, -0.901123, 0.305176, -0.610352, -0.061035
2392264, 0.460693, -0.022827, -0.897339, 0.366211, -0.671387, -0.122070
2392284, 0.462280, -0.022827, -0.898926, 0.305176, -0.610352, -0.061035
2392304, 0.461304, -0.022461, -0.898804, 0.366211, -0.610352, -0.061035
2392324, 0.461914, -0.023071, -0.900024, 0.366211, -0.671387, -0.122070
2392344, 0.461670, -0.023193, -0.898315, 0.305176, -0.671387, -0.061035
2392364, 0.462280, -0.022461, -0.899658, 0.366211, -0.610352, -0.061035
2392384, 0.461792, -0.023315, -0.899780, 0.366211, -0.732422, -0.061035
2392404, 0.461060, -0.022217, -0.898926, 0.366211, -0.610352, -0.061035
2392464, 0.453125, -0.018799, -0.894775, 0.183106, -0.488281, -0.122070
2392484, 0.460327, -0.024536, -0.893677, -0.183106, -1.281738, -0.366211
2392504, 0.457397, -0.020996, -0.894409, 0.183106, -0.732422, -0.122070
2392524, 0.463257, -0.024902, -0.900391, 0.183106, -0.915528, -0.183106
2392544, 0.462646, -0.022583, -0.900635, 0.366211, -0.488281, -0.061035
2392564, 0.460083, -0.022339, -0.898926, 0.305176, -0.671387, -0.061035
2392584, 0.462158, -0.023315, -0.900024, 0.305176, -0.671387, -0.061035
2392604, 0.462646, -0.022827, -0.899048, 0.305176, -0.671387, -0.061035
2392624, 0.462036, -0.021973, -0.899780, 0.305176, -0.671387, -0.122070
2392644, 0.461182, -0.023682, -0.900024, 0.366211, -0.610352, -0.061035
2392664, 0.461304, -0.022705, -0.899170, 0.305176, -0.671387, -0.122070
2392684, 0.461792, -0.022583, -0.898804, 0.366211, -0.610352, -0.061035
2392704, 0.461304, -0.022583, -0.899048, 0.305176, -0.671387, -0.061035
2392724, 0.462891, -0.023071, -0.899902, 0.305176, -0.671387, -0.061035
2392744, 0.461914, -0.022705, -0.898804, 0.305176, -0.671387, -0.122070
2392764, 0.462646, -0.023315, -0.900024, 0.305176, -0.671387, -0.061035
2392784, 0.460083, -0.022827, -0.898682, 0.305176, -0.610352, -0.061035
2392804, 0.462402, -0.022705, -0.900391, 0.305176, -0.671387, -0.122070
2392824, 0.461792, -0.022461, -0.899536, 0.305176, -0.671387, -0.122070
2392844, 0.462402, -0.023193, -0.899292, 0.305176, -0.671387, -0.061035
2392864, 0.461914, -0.021973, -0.899780, 0.305176, -0.549316, -0.061035
2392884, 0.461914, -0.022461, -0.898438, 0.305176, -0.671387, -0.061035
2392904, 0.461914, -0.022949, -0.899414, 0.366211, -0.610352, -0.061035
2392924, 0.462646, -0.022705, -0.900513, 0.305176, -0.671387, -0.061035
2392944, 0.459961, -0.023315, -0.898438, 0.305176, -0.610352, -0.061035
2392964, 0.463135, -0.022949, -0.901733, 0.305176, -0.610352, -0.061035
2392984, 0.460693, -0.022583, -0.897705, 0.366211, -0.671387, -0.061035
2393004, 0.463257, -0.024048, -0.899414, 0.366211, -0.488281, 0.000000
2393024, 0.462158, -0.022827, -0.900391, 0.366211, -0.488281, -0.061035
2393044, 0.460083, -0.021606, -0.898071, 0.305176, -0.610352, -0.061035
2393064, 0.460571, -0.021362, -0.898438, 0.366211, -0.549316, -0.061035
2393084, 0.461670, -0.023071, -0.898071, 0.244141, -0.732422, -0.122070
2393104, 0.462036, -0.022461, -0.900513, 0.366211, -0.610352, -0.061035
2393124, 0.461792, -0.022705, -0.899658, 0.305176, -0.671387, -0.061035
2393144, 0.461670, -0.022461, -0.898193, 0.305176, -0.671387, -0.122070
2393224, 0.461548, -0.023071, -0.899170, 0.366211, -0.671387, -0.122070
2393244, 0.461792, -0.023438, -0.900391, 0.305176, -0.549316, -0.061035
2393264, 0.460693, -0.023071, -0.896973, 0.305176, -0.793457, -0.122070
2393284, 0.463623, -0.024414, -0.901367, 0.427246, -0.549316, -0.122070
2393304, 0.461548, -0.021851, -0.898071, 0.366211, -0.610352, -0.061035
2393324, 0.462158, -0.022217, -0.899536, 0.305176, -0.610352, -0.061035
2393344, 0.461426, -0.022583, -0.900146, 0.305176, -0.671387, -0.122070
2393364, 0.463135, -0.023071, -0.900879, 0.366211, -0.610352, 0.000000
2393384, 0.460815, -0.022827, -0.898071, 0.366211, -0.671387, -0.061035
2393404, 0.461792, -0.023682, -0.900513, 0.305176, -0.671387, -0.061035
2393424, 0.461304, -0.022705, -0.899414, 0.366211, -0.671387, -0.061035
2393444, 0.462036, -0.022949, -0.899536, 0.305176, -0.671387, -0.122070
2393464, 0.461304, -0.022827, -0.900024, 0.366211, -0.610352, -0.061035
2393484, 0.462646, -0.023560, -0.899902, 0.305176, -0.610352, -0.061035
2393504, 0.461792, -0.023193, -0.899658, 0.305176, -0.671387, -0.061035
2393524, 0.461914, -0.022339, -0.900146, 0.366211, -0.610352, -0.061035
2393544, 0.462646, -0.022339, -0.899292, 0.305176, -0.671387, -0.061035
2393604, 0.461426, -0.023315, -0.898315, 0.305176, -0.671387, -0.122070
2393624, 0.462646, -0.023315, -0.900146, 0.366211, -0.610352, -0.061035
2393644, 0.461792, -0.022705, -0.898315, 0.305176, -0.610352, -0.122070
2393664, 0.462158, -0.023071, -0.900146, 0.305176, -0.671387, -0.061035
2393684, 0.460938, -0.022583, -0.899170, 0.366211, -0.610352, -0.061035
2393704, 0.462524, -0.022827, -0.899048, 0.305176, -0.671387, -0.061035
2393724, 0.461914, -0.022827, -0.899292, 0.366211, -0.671387, -0.061035
2393744, 0.462280, -0.022217, -0.899292, 0.305176, -0.671387, -0.061035
2393764, 0.462402, -0.022827, -0.899780, 0.305176, -0.671387, -0.122070
2393784, 0.461182, -0.022583, -0.899170, 0.366211, -0.671387, -0.061035
2393804, 0.462891, -0.022217, -0.899780, 0.366211, -0.671387, -0.061035
2393824, 0.461182, -0.023315, -0.899658, 0.305176, -0.610352, -0.061035
2393844, 0.462280, -0.022827, -0.898560, 0.305176, -0.671387, -0.122070
2393864, 0.462036, -0.022583, -0.900635, 0.366211, -0.610352, -0.122070
2393884, 0.461304, -0.022095, -0.898315, 0.305176, -0.671387, -0.061035
2393904, 0.460815, -0.022217, -0.899536, 0.366211, -0.610352, -0.122070
2393924, 0.461182, -0.022095, -0.899902, 0.366211, -0.671387, -0.061035
2393984, 0.462769, -0.023071, -0.900024, 0.366211, -0.610352, 0.000000
2394004, 0.461060, -0.022827, -0.899170, 0.305176, -0.671387, -0.122070
2394024, 0.460693, -0.023560, -0.899658, 0.305176, -0.610352, -0.061035
2394044, 0.461670, -0.023438, -0.899414, 0.305176, -0.671387, -0.061035
2394064, 0.461060, -0.022705, -0.898804, 0.305176, -0.671387, -0.061035
2394084, 0.461670, -0.022827, -0.899536, 0.305176, -0.732422, -0.122070
2394104, 0.462646, -0.022583, -0.899658, 0.366211, -0.610352, -0.061035
2394124, 0.461792, -0.022339, -0.899170, 0.305176, -0.671387, -0.061035
2394144, 0.461182, -0.023071, -0.899536, 0.305176, -0.671387, -0.061035
2394164, 0.462036, -0.022827, -0.899048, 0.366211, -0.671387, -0.061035
2394184, 0.462036, -0.023438, -0.899048, 0.366211, -0.671387, -0.061035
2394204, 0.461792, -0.022095, -0.898682, 0.305176, -0.671387, -0.061035
2394224, 0.461792, -0.022827, -0.898071, 0.305176, -0.671387, -0.061035
2394244, 0.462524, -0.023071, -0.899902, 0.305176, -0.671387, -0.061035
2394264, 0.460327, -0.022949, -0.898804, 0.366211, -0.671387, -0.061035
2394284, 0.462646, -0.023804, -0.900513, 0.366211, -0.671387, -0.061035
2394304, 0.461060, -0.022949, -0.898438, 0.305176, -0.671387, -0.061035
2394324, 0.462524, -0.023071, -0.900269, 0.305176, -0.671387, -0.061035
2394344, 0.460571, -0.022705, -0.898193, 0.366211, -0.732422, -0.061035
2394364, 0.462158, -0.022339, -0.900391, 0.366211, -0.610352, -0.061035
2394384, 0.461914, -0.022949, -0.899048, 0.366211, -0.671387, -0.061035
2394404, 0.460938, -0.023071, -0.900024, 0.366211, -0.671387, -0.061035
2394424, 0.462280, -0.023071, -0.898926, 0.305176, -0.671387, -0.122070
2394444, 0.462036, -0.023560, -0.898926, 0.305176, -0.671387, -0.061035
2394464, 0.462036, -0.022705, -0.899292, 0.366211, -0.610352, -0.061035
2394484, 0.462280, -0.023193, -0.899048, 0.305176, -0.671387, -0.061035
2394504, 0.462891, -0.022583, -0.899902, 0.305176, -0.671387, -0.122070
2394524, 0.462646, -0.023193, -0.899780, 0.305176, -0.671387, -0.122070
2394544, 0.461792, -0.022583, -0.899048, 0.305176, -0.671387, -0.061035
2394564, 0.462402, -0.022949, -0.899780, 0.305176, -0.610352, -0.061035
2394584, 0.463013, -0.022827, -0.900269, 0.366211, -0.671387, -0.061035
2394604, 0.461670, -0.022827, -0.899292, 0.366211, -0.671387, -0.061035
2394624, 0.461914, -0.022827, -0.898193, 0.305176, -0.671387, -0.061035
2394644, 0.461914, -0.022461, -0.900269, 0.366211, -0.610352, -0.061035
2394664, 0.461670, -0.023560, -0.898071, 0.305176, -0.671387, -0.061035
2394684, 0.462402, -0.022583, -0.899170, 0.305176, -0.549316, -0.061035
2394804, 0.469849, -0.017334, -0.891724, 0.549316, -2.075195, 0.000000
2394824, 0.453613, -0.022217, -0.891235, 0.183106, -0.183106, -0.183106
2394844, 0.475830, -0.026001, -0.912354, 0.488281, -0.610352, -0.061035
2394864, 0.457397, -0.022339, -0.894897, 0.427246, -0.732422, -0.122070
2394884, 0.463745, -0.022949, -0.897217, 0.244141, -0.732422, -0.122070
2394904, 0.463745, -0.024292, -0.902100, 0.244141, -0.427246, -0.061035
2394924, 0.460327, -0.025635, -0.896362, 0.549316, -0.610352, 0.000000
2394944, 0.507690, 0.001099, -0.942993, 1.586915, 0.549316, -0.061035
2394964, 0.471313, -0.036621, -1.072510, 5.859377, 16.906738, 2.624512
2394984, 0.477539, 0.001099, -0.827759, -0.305176, -9.460449, -1.159668
2395004, 0.463989, -0.033691, -0.915771, -0.610352, 2.624512, -0.671387
2395024, 0.467285, -0.026245, -0.895752, 0.244141, -2.502441, -0.183106
2395044, 0.468384, -0.023071, -0.912842, 1.037598, 0.671387, 0.244141
2395064, 0.456787, -0.016846, -0.885132, -0.061035, -1.525879, -0.366211
2395084, 0.461914, -0.026733, -0.898315, -0.366211, -0.976563, -0.488281
2395104, 0.462036, -0.026489, -0.885742, -0.061035, -1.647950, -0.305176
2395124, 0.476318, -0.030029, -0.909546, 0.549316, -0.427246, 0.061035
2395144, 0.464600, -0.021606, -0.906982, -0.122070, -1.098633, -0.305176
2395164, 0.451172, -0.023071, -0.880005, 0.122070, -1.342773, -0.183106
2395184, 0.471436, -0.026489, -0.908325, 0.488281, 0.000000, 0.061035
2395204, 0.459839, -0.019653, -0.897461, 0.488281, -0.671387, 0.000000
2395224, 0.461548, -0.021484, -0.897095, 0.061035, -0.793457, -0.244141
2395244, 0.460449, -0.023315, -0.893677, -0.061035, -1.281738, -0.305176
2395264, 0.467285, -0.025635, -0.901367, 0.061035, -1.037598, -0.183106
2395284, 0.461060, -0.023926, -0.895264, 0.427246, -0.854492, -0.061035
2395304, 0.469482, -0.024414, -0.903687, 0.549316, -0.305176, 0.061035
2395324, 0.459839, -0.021362, -0.897217, 0.549316, -0.366211, 0.061035
2395344, 0.465332, -0.023926, -0.899414, 0.549316, -0.549316, 0.061035
2395364, 0.464844, -0.021729, -0.901123, 0.488281, -0.305176, 0.061035
2395384, 0.461304, -0.021729, -0.895264, 0.244141, -0.793457, -0.122070
2395404, 0.462036, -0.022827, -0.894897, 0.061035, -0.976563, -0.244141
2395424, 0.466309, -0.025391, -0.900146, 0.305176, -0.854492, -0.061035
2395444, 0.464966, -0.024170, -0.899658, 0.427246, -0.549316, 0.000000
2395464, 0.464844, -0.022705, -0.901611, 0.488281, -0.305176, 0.061035
2395484, 0.459717, -0.021851, -0.893555, 0.244141, -0.854492, -0.122070
2395524, 0.463135, -0.024780, -0.896606, 0.305176, -0.549316, -0.122070
2395544, 0.461426, -0.023315, -0.894287, 0.000000, -0.976563, -0.244141
2395564, 0.464111, -0.025635, -0.896362, 0.061035, -0.976563, -0.244141
2395584, 0.465820, -0.024658, -0.899536, 0.366211, -0.732422, -0.061035
2395604, 0.466064, -0.023193, -0.901978, 0.610352, -0.305176, 0.122070
2395624, 0.462402, -0.022217, -0.900146, 0.488281, -0.366211, 0.000000
2395644, 0.460205, -0.021729, -0.896118, 0.244141, -0.671387, -0.122070
2395664, 0.461548, -0.023315, -0.895752, 0.061035, -1.037598, -0.244141
2395684, 0.465332, -0.025757, -0.897583, 0.244141, -0.976563, -0.183106
2395704, 0.465576, -0.023804, -0.900269, 0.427246, -0.610352, 0.000000
2395724, 0.463989, -0.024170, -0.897583, 0.122070, -0.976563, -0.183106
2395744, 0.465942, -0.024048, -0.900635, 0.427246, -0.549316, -0.061035
2395764, 0.464966, -0.022583, -0.901245, 0.549316, -0.366211, 0.061035
2395784, 0.462036, -0.021484, -0.898560, 0.427246, -0.488281, 0.000000
2395804, 0.460938, -0.022705, -0.896851, 0.183106, -0.732422, -0.122070
2395824, 0.463501, -0.023560, -0.895874, 0.122070, -0.976563, -0.183106
2395844, 0.465576, -0.025024, -0.899414, 0.244141, -0.793457, -0.122070
2395864, 0.464844, -0.024414, -0.901001, 0.488281, -0.549316, 0.000000
2395884, 0.463501, -0.022339, -0.900146, 0.488281, -0.427246, 0.000000
2395904, 0.461182, -0.020996, -0.901489, 0.488281, -0.549316, 0.000000
2395924, 0.463013, -0.021973, -0.898438, 0.427246, -0.427246, 0.000000
2395944, 0.462402, -0.022705, -0.898315, 0.427246, -0.488281, 0.000000
2395964, 0.461670, -0.023071, -0.896240, 0.183106, -0.915528, -0.183106
2395984, 0.462036, -0.024414, -0.897461, 0.183106, -0.915528, -0.122070
2396004, 0.465088, -0.024170, -0.898926, 0.366211, -0.732422, -0.061035
2396024, 0.464844, -0.024170, -0.901001, 0.488281, -0.488281, 0.000000
2396044, 0.462524, -0.022827, -0.898560, 0.427246, -0.488281, 0.000000
2396064, 0.462158, -0.021851, -0.897583, 0.244141, -0.732422, -0.122070
2396084, 0.463745, -0.023193, -0.897217, 0.183106, -0.854492, -0.183106
2396104, 0.461060, -0.022217, -0.897217, 0.366211, -0.488281, -0.061035
2396124, 0.461914, -0.023438, -0.896484, 0.183106, -0.793457, -0.122070
2396144, 0.463257, -0.024902, -0.897705, 0.183106, -0.793457, -0.183106
2396164, 0.465942, -0.024414, -0.901489, 0.366211, -0.610352, -0.061035
2396184, 0.463745, -0.022949, -0.899536, 0.427246, -0.549316, 0.000000
2396204, 0.462524, -0.022705, -0.898926, 0.427246, -0.549316, -0.061035
2396244, 0.462891, -0.024048, -0.897095, 0.183106, -0.854492, -0.122070
2396284, 0.462402, -0.023193, -0.897095, 0.183106, -0.854492, -0.183106
2396304, 0.465210, -0.024536, -0.898071, 0.305176, -0.732422, -0.061035
2396324, 0.463501, -0.023560, -0.898804, 0.366211, -0.671387, 0.000000
2396344, 0.464844, -0.022705, -0.900024, 0.427246, -0.549316, 0.000000
2396364, 0.462280, -0.022949, -0.897339, 0.366211, -0.610352, 0.000000
2396384, 0.463135, -0.022949, -0.898804, 0.244141, -0.732422, -0.122070
2396404, 0.464111, -0.024414, -0.898315, 0.244141, -0.793457, -0.122070
2396424, 0.463867, -0.023315, -0.899170, 0.305176, -0.671387, -0.122070
2396444, 0.463989, -0.023682, -0.899536, 0.427246, -0.488281, 0.000000
2396464, 0.463013, -0.022705, -0.899536, 0.366211, -0.549316, -0.061035
2396484, 0.463989, -0.023560, -0.898315, 0.427246, -0.610352, 0.000000
2396504, 0.464355, -0.022949, -0.899536, 0.366211, -0.488281, -0.061035
2396524, 0.462524, -0.022949, -0.897217, 0.366211, -0.671387, -0.061035
2396544, 0.462891, -0.024048, -0.898560, 0.244141, -0.671387, -0.122070
2396644, 0.463501, -0.022949, -0.898560, 0.244141, -0.610352, -0.061035
2396664, 0.462646, -0.022949, -0.897217, 0.366211, -0.610352, -0.061035
2396684, 0.464478, -0.024048, -0.899292, 0.366211, -0.549316, -0.061035
2396704, 0.463379, -0.023071, -0.899414, 0.366211, -0.549316, -0.061035
2396724, 0.463867, -0.023560, -0.898071, 0.305176, -0.732422, -0.061035
2396744, 0.463623, -0.023193, -0.899048, 0.366211, -0.610352, -0.061035
2396764, 0.464233, -0.022949, -0.898560, 0.366211, -0.610352, -0.061035
2396784, 0.462402, -0.023560, -0.897705, 0.366211, -0.488281, -0.061035
2396804, 0.464966, -0.023560, -0.899536, 0.305176, -0.610352, -0.061035
2396824, 0.463257, -0.024658, -0.897339, 0.244141, -0.732422, -0.122070
2396844, 0.463379, -0.024048, -0.898682, 0.305176, -0.671387, -0.061035
2396864, 0.463013, -0.023926, -0.898193, 0.244141, -0.732422, -0.122070
2396884, 0.464111, -0.022949, -0.898926, 0.244141, -0.732422, 0.000000
2396904, 0.462891, -0.023438, -0.898926, 0.366211, -0.610352, -0.061035
2396924, 0.463257, -0.023682, -0.898926, 0.427246, -0.549316, -0.061035
2396944, 0.462280, -0.023560, -0.897705, 0.366211, -0.610352, -0.061035
2396964, 0.462646, -0.024292, -0.898438, 0.305176, -0.671387, -0.061035
2397024, 0.463501, -0.023193, -0.898560, 0.366211, -0.549316, -0.061035
2397044, 0.463623, -0.023560, -0.898926, 0.366211, -0.671387, -0.061035
2397064, 0.463867, -0.023315, -0.897705, 0.305176, -0.610352, -0.061035
2397084, 0.463257, -0.023071, -0.899048, 0.366211, -0.549316, -0.061035
2397104, 0.463501, -0.023804, -0.898438, 0.305176, -0.671387, -0.122070
2397124, 0.463745, -0.023804, -0.897949, 0.305176, -0.610352, -0.061035
2397144, 0.463867, -0.022949, -0.897949, 0.305176, -0.671387, -0.061035
2397164, 0.463135, -0.023560, -0.898315, 0.366211, -0.610352, -0.061035
2397184, 0.463257, -0.023682, -0.898560, 0.305176, -0.610352, -0.061035
2397204, 0.463989, -0.023315, -0.898926, 0.366211, -0.610352, -0.061035
2397224, 0.463989, -0.023315, -0.897949, 0.244141, -0.671387, -0.061035
2397244, 0.463745, -0.022339, -0.898560, 0.305176, -0.610352, -0.061035
2397264, 0.462891, -0.023438, -0.897705, 0.305176, -0.671387, -0.122070
2397284, 0.463623, -0.023315, -0.898926, 0.305176, -0.671387, -0.061035
2397304, 0.464111, -0.023682, -0.899048, 0.305176, -0.610352, -0.061035
2397324, 0.464111, -0.022705, -0.898926, 0.366211, -0.549316, 0.000000
2397344, 0.463135, -0.023438, -0.898071, 0.366211, -0.610352, -0.061035
2397424, 0.465088, -0.024048, -0.899414, 0.244141, -0.610352, -0.122070
2397444, 0.462158, -0.022827, -0.896606, 0.305176, -0.610352, -0.061035
2397464, 0.464966, -0.023560, -0.900024, 0.366211, -0.549316, 0.000000
2397484, 0.462036, -0.023071, -0.897339, 0.366211, -0.610352, -0.061035
2397504, 0.463623, -0.023926, -0.899658, 0.305176, -0.610352, -0.061035
2397524, 0.463257, -0.023071, -0.898682, 0.366211, -0.671387, -0.061035
2397544, 0.463745, -0.023560, -0.898071, 0.305176, -0.671387, -0.122070
2397564, 0.463379, -0.023926, -0.897217, 0.305176, -0.671387, -0.061035
2397584, 0.463867, -0.024048, -0.898926, 0.305176, -0.671387, -0.061035
2397604, 0.463501, -0.023926, -0.899170, 0.366211, -0.671387, -0.061035
2397624, 0.465210, -0.023926, -0.898804, 0.305176, -0.610352, -0.122070
2397644, 0.463623, -0.022949, -0.898560, 0.427246, -0.488281, 0.000000
2397664, 0.463135, -0.023193, -0.897949, 0.366211, -0.549316, 0.000000
2397684, 0.462280, -0.024170, -0.897095, 0.366211, -0.610352, -0.061035
2397704, 0.464111, -0.023193, -0.898804, 0.305176, -0.671387, -0.061035
2397724, 0.463257, -0.023682, -0.897949, 0.305176, -0.671387, -0.122070
2397784, 0.464355, -0.023682, -0.898804, 0.244141, -0.549316, -0.122070
2397804, 0.464478, -0.023438, -0.900269, 0.427246, -0.549316, 0.000000
2397824, 0.462036, -0.023071, -0.898438, 0.366211, -0.549316, -0.061035
2397844, 0.463257, -0.023193, -0.899048, 0.183106, -0.854492, -0.122070
2397864, 0.462769, -0.024170, -0.898071, 0.244141, -0.854492, -0.122070
2397884, 0.464111, -0.023438, -0.899658, 0.305176, -0.671387, -0.061035
2397904, 0.462891, -0.022583, -0.896729, 0.305176, -0.732422, -0.122070
2397924, 0.463135, -0.024292, -0.897827, 0.244141, -0.732422, -0.122070
2397944, 0.463135, -0.023926, -0.897949, 0.305176, -0.732422, -0.061035
2397964, 0.464478, -0.022949, -0.898682, 0.366211, -0.671387, -0.061035
2397984, 0.463379, -0.023804, -0.897461, 0.366211, -0.549316, 0.000000
2398004, 0.463135, -0.023071, -0.898560, 0.305176, -0.610352, -0.061035
2398024, 0.463379, -0.022827, -0.898560, 0.305176, -0.610352, -0.061035
2398044, 0.464600, -0.023315, -0.898682, 0.305176, -0.671387, -0.061035
2398064, 0.464233, -0.023560, -0.898804, 0.305176, -0.732422, -0.061035
2398084, 0.463501, -0.023438, -0.897583, 0.244141, -0.793457, -0.122070
2398104, 0.463379, -0.023804, -0.897095, 0.305176, -0.732422, -0.122070
2398124, 0.464111, -0.023804, -0.897827, 0.366211, -0.732422, -0.061035
2398144, 0.463989, -0.023193, -0.898682, 0.366211, -0.671387, -0.061035
2398164, 0.463013, -0.023193, -0.898560, 0.366211, -0.610352, -0.061035
2398184, 0.463745, -0.023682, -0.898438, 0.305176, -0.671387, -0.061035
2398204, 0.463501, -0.022827, -0.898804, 0.305176, -0.671387, -0.061035
2398224, 0.463013, -0.022949, -0.898193, 0.366211, -0.671387, -0.061035
2398244, 0.463501, -0.023560, -0.898682, 0.305176, -0.671387, -0.061035
2398264, 0.463379, -0.022949, -0.898682, 0.366211, -0.671387, -0.061035
2398284, 0.463745, -0.023560, -0.898193, 0.366211, -0.671387, -0.122070
2398304, 0.462769, -0.023438, -0.899414, 0.366211, -0.610352, -0.061035
2398324, 0.462891, -0.023315, -0.897949, 0.305176, -0.671387, -0.061035
2398344, 0.463623, -0.023438, -0.898438, 0.305176, -0.610352, -0.061035
2398364, 0.463135, -0.023315, -0.898071, 0.366211, -0.610352, -0.061035
2398384, 0.462280, -0.023926, -0.897827, 0.305176, -0.671387, -0.061035
2398404, 0.463013, -0.023682, -0.898438, 0.305176, -0.671387, -0.061035
2398424, 0.463867, -0.023682, -0.898438, 0.366211, -0.671387, -0.061035
2398444, 0.464478, -0.023926, -0.898560, 0.366211, -0.671387, -0.061035
2398464, 0.463013, -0.022461, -0.897827, 0.305176, -0.671387, -0.061035
2398484, 0.463867, -0.024048, -0.899048, 0.305176, -0.671387, -0.061035
2398564, 0.462891, -0.023071, -0.897339, 0.305176, -0.671387, -0.061035
2398584, 0.463745, -0.023560, -0.898193, 0.305176, -0.671387, -0.061035
2398604, 0.463379, -0.023071, -0.898926, 0.305176, -0.732422, -0.122070
2398624, 0.463867, -0.023071, -0.898804, 0.305176, -0.671387, -0.122070
2398644, 0.462524, -0.023560, -0.897949, 0.366211, -0.610352, -0.061035
2398664, 0.462769, -0.024048, -0.898438, 0.305176, -0.610352, -0.061035
2398684, 0.463989, -0.023438, -0.899536, 0.366211, -0.549316, -0.061035
2398704, 0.462646, -0.022949, -0.897583, 0.305176, -0.610352, -0.122070
2398724, 0.462891, -0.023315, -0.898560, 0.366211, -0.610352, -0.061035
2398744, 0.462769, -0.023071, -0.898315, 0.305176, -0.671387, -0.061035
2398764, 0.463745, -0.024048, -0.898926, 0.305176, -0.671387, -0.061035
2398784, 0.462646, -0.022827, -0.897949, 0.366211, -0.732422, -0.122070
2398804, 0.463867, -0.023193, -0.897827, 0.305176, -0.610352, -0.061035
2398824, 0.463501, -0.023193, -0.899048, 0.366211, -0.610352, -0.061035
2398844, 0.463623, -0.023682, -0.898438, 0.366211, -0.610352, -0.061035
2398864, 0.463623, -0.023804, -0.898193, 0.366211, -0.610352, -0.061035
2398884, 0.463257, -0.023560, -0.897827, 0.305176, -0.610352, -0.061035
2398904, 0.463867, -0.024048, -0.898682, 0.305176, -0.671387, -0.061035
2398924, 0.463379, -0.023193, -0.898682, 0.366211, -0.671387, -0.061035
2398944, 0.463379, -0.023560, -0.898682, 0.366211, -0.671387, -0.122070
2398964, 0.463501, -0.023438, -0.898315, 0.366211, -0.610352, -0.061035
2398984, 0.463013, -0.023315, -0.899414, 0.305176, -0.610352, -0.061035
2399004, 0.463867, -0.022705, -0.898315, 0.305176, -0.610352, -0.061035
2399024, 0.463135, -0.022827, -0.898926, 0.305176, -0.610352, -0.122070
2399044, 0.463379, -0.023438, -0.898438, 0.305176, -0.671387, -0.122070
2399064, 0.463745, -0.023193, -0.899414, 0.305176, -0.610352, 0.000000
2399084, 0.463867, -0.023926, -0.898071, 0.305176, -0.610352, -0.061035
2399104, 0.462891, -0.023560, -0.898193, 0.305176, -0.671387, -0.061035
2399124, 0.463745, -0.023560, -0.897827, 0.305176, -0.671387, -0.061035
2399144, 0.462891, -0.023926, -0.898193, 0.366211, -0.610352, -0.061035
2399164, 0.462891, -0.023315, -0.897949, 0.305176, -0.610352, -0.061035
2399184, 0.463623, -0.023926, -0.898560, 0.305176, -0.671387, -0.061035
2399204, 0.462891, -0.023438, -0.898071, 0.305176, -0.610352, -0.061035
2399224, 0.463379, -0.023682, -0.898682, 0.305176, -0.610352, -0.061035
2399244, 0.462402, -0.024048, -0.898438, 0.305176, -0.610352, -0.061035
2399264, 0.463135, -0.023315, -0.897949, 0.305176, -0.671387, -0.122070
2399284, 0.463013, -0.023560, -0.899048, 0.366211, -0.671387, -0.122070
2399304, 0.463501, -0.022949, -0.897949, 0.305176, -0.671387, -0.061035
2399324, 0.462891, -0.023682, -0.898926, 0.305176, -0.610352, -0.061035
2399344, 0.463379, -0.024170, -0.898560, 0.366211, -0.610352, -0.061035
2438386, 0.234131, 0.699829, -0.673218, 8.483887, -4.516602, -0.427246
2438406, 0.259888, 0.682251, -0.722534, 7.873537, -3.479005, 0.427246
2438426, 0.275391, 0.683838, -0.714600, 5.371094, -2.685547, -0.976563
2438446, 0.278442, 0.690430, -0.697144, 5.432129, -4.821777, -1.647950
2438466, 0.307617, 0.683228, -0.707031, 5.126953, -16.540527, -2.624512
2438486, 0.219238, 0.678833, -0.721802, 4.699707, -22.705086, -1.281738
2438506, 0.259033, 0.670288, -0.765869, 0.061035, -16.906738, -1.159668
2438526, 0.276733, 0.675903, -0.742920, -4.211426, -11.474613, -5.371094
2438706, 0.406494, 0.689819, -0.706787, -7.690432, 31.494148, 14.038090
2438726, 0.351685, 0.673950, -0.689575, -5.859377, 18.798828, 6.225588
2438746, 0.230957, 0.654053, -0.704346, -7.934572, 20.812988, 13.427738
2438766, 0.288208, 0.676636, -0.721191, -9.643555, 33.081055, 12.146000
2438786, 0.353149, 0.656494, -0.678711, -6.164553, 30.151375, 6.530764
2438806, 0.413574, 0.625244, -0.690063, -4.150391, 22.705086, 5.126953
2438826, 0.527100, 0.635132, -0.651978, -4.577637, 9.399414, 5.065918
2438846, 0.676392, 0.635620, -0.650391, -8.728027, -18.005371, 2.014160
2438866, 0.676514, 0.635620, -0.650146, -5.920412, -57.617203, -8.483887
2438886, 0.699829, 0.658081, -0.705444, -15.686039, -89.660675, -20.751953
2438906, 0.365234, 0.717773, -0.618652, -23.193367, -115.234406, -23.803719
2438926, 0.111938, 0.766968, -0.560059, -26.000984, -95.642120, -14.587406
2438946, -0.027832, 0.751099, -0.561890, -24.047859, -55.969254, 2.807618
2438966, 0.131836, 0.786255, -0.467163, -11.718754, 10.620117, 41.015625
2438986, 0.285645, 0.780029, -0.571533, -5.493164, 14.770512, 38.208008
2439006, 0.242554, 0.827393, -0.568237, 2.258301, 5.981447, 25.756844
2439026, 0.118530, 0.790161, -0.666260, 4.333496, 5.004883, 13.427738
2439046, 0.163330, 0.761841, -0.667114, 2.258301, 24.108894, 10.070801
2439066, 0.170776, 0.754272, -0.713867, -2.502441, 34.912109, 10.070801
2439086, 0.178711, 0.764404, -0.682373, -5.371094, 35.339355, 7.019045
2439146, 0.365356, 0.702026, -0.700806, -6.164553, 29.724129, -6.713869
2439166, 0.389526, 0.723511, -0.658203, -5.310059, 22.583015, -12.817387
2439186, 0.381348, 0.659668, -0.663086, -5.798342, 11.230473, -18.920898
2439206, 0.341187, 0.651001, -0.637695, -3.417970, 11.291508, -12.451176
2439226, 0.355591, 0.712769, -0.671265, -0.488281, 16.052246, -11.230473
2439246, 0.359009, 0.667358, -0.645874, -2.563477, 14.770512, -14.221195
2439266, 0.364868, 0.668213, -0.638794, 2.502441, 20.324707, -13.366703
2439286, 0.376953, 0.661499, -0.620972, 5.126953, 19.775391, -9.521484
2439306, 0.436401, 0.638306, -0.619751, 6.713869, 15.380863, -5.493164
2439326, 0.600952, 0.661987, -0.655273, -1.525879, 15.747074, -0.183106
2439346, 0.810303, 0.681885, -0.649048, -13.916019, -32.653809, -37.536621
2439366, 0.437988, 0.699951, -0.570557, -11.169437, -72.204590, -49.255386
2439386, 0.200073, 0.695923, -0.523560, -2.563477, -81.115723, -40.771484
2439406, 0.117676, 0.753784, -0.567627, 3.417970, -66.833496, -25.024422
2439426, 0.116455, 0.766357, -0.600464, 3.479005, -51.330582, -15.502934
2439446, 0.123779, 0.739380, -0.582275, 5.371094, -35.217285, -6.591799
2439466, 0.149292, 0.769287, -0.599731, 11.169437, -23.193367, 4.394531
2439486, 0.262085, 0.794922, -0.645020, 6.774904, -24.780281, 3.967286
2439506, 0.202271, 0.804077, -0.557739, 6.408693, -27.282722, 2.563477
2439526, 0.182373, 0.792480, -0.574463, 10.375977, -20.141602, 12.329105
2439546, 0.063232, 0.769897, -0.557129, 11.962894, 0.793457, 24.780281
2439566, 0.296143, 0.785278, -0.617188, 9.643555, 16.967773, 38.513184
2439606, 0.280396, 0.805664, -0.671021, -2.136230, 8.605957, 12.573246
2439626, 0.311157, 0.752441, -0.673462, -5.126953, 3.601075, -1.831055
2439646, 0.370728, 0.696411, -0.711914, -10.253906, -6.042482, -8.483887
2439666, 0.349365, 0.636597, -0.764893, -7.751467, -16.235352, -14.038090
2439686, 0.440552, 0.600830, -0.750977, -5.676271, -39.489746, -23.315437
2439706, 0.335938, 0.611694, -0.805786, -8.300781, -56.396500, -25.085457
2439726, 0.106812, 0.717896, -0.690063, -15.991215, -52.795425, -5.065918
2439746, -0.055054, 0.792725, -0.670044, -15.380863, -37.048340, -7.629396
2439766, -0.164551, 0.802856, -0.708374, -20.019531, -13.427738, -18.859863
2439786, -0.274780, 0.798584, -0.514404, -16.540527, 19.592285, -0.671387
2439806, -0.100098, 0.792236, -0.521851, -5.187988, 47.668472, 22.888191
2439826, 0.121582, 0.774292, -0.567017, 1.525879, 64.147949, 31.433113
2439846, 0.289307, 0.756714, -0.617188, 4.394531, 71.289063, 30.151375
2439866, 0.429810, 0.737915, -0.683105, 0.488281, 62.255875, 18.066406
2439886, 0.372070, 0.742920, -0.658203, -3.479005, 51.696793, 9.094238
2439906, 0.421265, 0.754272, -0.619263, -6.835939, 33.264160, -3.479005
