timestamp,ax,ay,az,gx,gy,gz
241383, 0.945068, 0.602051, -0.223145, -2.441406, 42.358398, 16.601563
241403, 0.787842, 0.540405, -0.239746, 5.554201, 7.080080, 11.474613
241423, 0.873291, 0.491699, -0.260254, 7.202150, 4.455566, 1.159668
241443, 0.767334, 0.494263, -0.273804, 10.803223, 3.662110, -4.211426
241523, 0.817383, 0.475952, -0.307495, 9.765625, 2.746582, -15.136723
241543, 0.761475, 0.511230, -0.336792, 11.413578, -6.469728, -15.136723
241563, 0.782593, 0.515381, -0.344971, 9.643555, -3.967286, -12.329105
241583, 0.778809, 0.595703, -0.338135, 5.310059, -5.004883, -7.263186
241603, 0.780640, 0.545410, -0.343384, 2.197266, -2.563477, -5.615236
241623, 0.765259, 0.567993, -0.303589, 3.356935, 1.342773, -4.089355
241643, 0.791870, 0.550049, -0.291870, 8.850098, -3.112794, -2.990724
241663, 0.800659, 0.516235, -0.319336, 10.314941, -8.178711, -6.958010
241763, 0.795166, 0.482056, -0.379639, -1.342773, -4.882813, -9.094238
241863, 0.602661, 0.597046, -0.346680, -16.967773, 23.559578, 0.671387
241883, 0.697754, 0.526245, -0.395874, -20.202637, 45.593277, 12.023930
241904, 0.850464, 0.531494, -0.434448, -34.851074, 33.020020, 14.343266
241924, 0.856689, 0.567383, -0.340820, -37.414551, 2.197266, 7.019045
241944, 0.868164, 0.543945, -0.287354, -26.794441, -35.766602, -7.629396
241964, 0.861938, 0.613159, -0.272705, -14.099125, -55.847183, -17.272949
241984, 0.894897, 0.594238, -0.238525, 1.037598, -86.059570, -25.085457
242004, 0.796387, 0.580200, -0.370239, 6.225588, -99.060089, -30.334480
242024, 0.605225, 0.610474, -0.448486, -0.549316, -94.360382, -24.475105
242044, 0.514282, 0.598877, -0.397217, -5.798342, -63.781754, -7.873537
242064, 0.559448, 0.468750, -0.265625, 3.540040, 11.779789, -9.460449
242084, 0.558350, 0.635742, -0.247437, 19.165039, 57.434097, -12.268070
242104, 0.640015, 0.516846, -0.489502, 15.686039, 49.377457, -6.469728
242124, 0.801392, 0.550659, -0.559326, -10.742188, 14.526371, -9.521484
242144, 0.774658, 0.731689, -0.300903, -10.559082, -44.433609, -15.502934
242164, 0.728760, 0.658936, -0.394287, -6.835939, -58.837906, -22.216805
242184, 0.693115, 0.638428, -0.373535, -7.080080, -68.542480, -38.146973
242204, 0.588623, 0.591553, -0.355103, -10.803223, -69.152832, -40.649414
242224, 0.499878, 0.666382, -0.367065, -15.441898, -52.856461, -29.418953
242244, 0.522461, 0.708496, -0.392334, -12.329105, -31.127937, -18.188477
242264, 0.566406, 0.701050, -0.480957, -9.338379, -10.620117, -16.174316
242284, 0.577759, 0.656860, -0.555786, -16.052246, -11.596684, -19.104004
242304, 0.511108, 0.654907, -0.487427, -19.226074, -4.577637, -17.333984
242324, 0.523560, 0.678955, -0.504395, -19.409180, 9.887695, -10.070801
242344, 0.547485, 0.660400, -0.476196, -21.606445, 16.174316, -13.854984
242364, 0.548340, 0.651245, -0.459839, -25.939949, 19.592285, -17.761230
242384, 0.489746, 0.884277, -0.371582, -25.451668, 13.854984, -1.586915
242404, 0.699585, 0.855713, -0.301270, -6.469728, 12.573246, 22.033691
242664, 0.593506, 0.745728, -0.378540, -2.258301, -8.239746, -4.516602
242684, 0.540039, 0.728516, -0.371826, -0.183106, -10.314941, -3.417970
242704, 0.564575, 0.724731, -0.419067, -0.061035, -3.967286, 0.915528
242724, 0.564575, 0.738647, -0.403320, -1.098633, -1.892090, 0.183106
242744, 0.598022, 0.738525, -0.366699, 0.915528, -0.732422, 0.183106
242764, 0.604370, 0.731079, -0.370728, 3.784181, -4.821777, -1.770020
242784, 0.566040, 0.736694, -0.384155, 5.432129, -8.361816, -2.868653
242804, 0.571655, 0.744385, -0.407715, 6.530764, -5.249023, -2.258301
242824, 0.581665, 0.744629, -0.393311, 7.812502, -8.239746, -1.953125
242844, 0.565674, 0.740234, -0.381104, 10.375977, -11.657719, -0.305176
242864, 0.527954, 0.760498, -0.401855, 13.732914, -9.155273, 9.399414
242884, 0.638428, 0.798828, -0.420654, 15.319828, -14.221195, 11.352543
242904, 0.674561, 0.752930, -0.473755, 19.409180, -33.386230, -0.610352
242924, 0.604736, 0.708252, -0.451538, 16.357422, -46.752945, -5.004883
242944, 0.588867, 0.681030, -0.478760, 13.122562, -59.204117, -8.056641
242964, 0.511597, 0.660767, -0.491699, 4.699707, -56.457535, -9.948730
242984, 0.418945, 0.678345, -0.491211, 2.380371, -44.311539, -7.873537
243004, 0.416992, 0.703125, -0.502441, -0.915528, -31.433113, -1.464844
243024, 0.482056, 0.752930, -0.498535, -2.136230, -27.771004, -1.159668
243044, 0.550171, 0.754028, -0.485718, 0.732422, -36.132813, -4.333496
243064, 0.491821, 0.691895, -0.511230, 3.417970, -34.851074, -7.507326
243084, 0.403198, 0.703735, -0.498413, 2.441406, -21.484375, -0.976563
243104, 0.389526, 0.719238, -0.503174, 6.469728, -3.845216, 4.760742
243124, 0.454712, 0.711914, -0.549561, 6.835939, 10.559082, 6.652834
243144, 0.448120, 0.696655, -0.550537, 7.873537, 26.794441, 2.624512
243164, 0.405884, 0.659180, -0.553467, 9.521484, 49.011246, 5.310059
243184, 0.359741, 0.625000, -0.510254, 11.901859, 62.255875, 22.399910
243204, 0.355957, 0.596191, -0.516724, 9.887695, 83.557129, 38.208008
243224, 0.452026, 0.629639, -0.485229, 3.601075, 113.708527, 37.414551
243244, 0.563965, 0.664063, -0.411865, 5.187988, 130.432129, 30.212410
243264, 0.621460, 0.678711, -0.426392, 4.089355, 140.869141, 28.564461
243284, 0.691162, 0.640625, -0.351318, 0.061035, 144.592285, 23.864754
243304, 0.835815, 0.648193, -0.317505, -0.915528, 109.008820, 20.751953
243324, 0.897217, 0.631958, -0.288940, -2.319336, 71.472168, 8.605957
243344, 0.880127, 0.671143, -0.221680, 2.502441, 23.559578, -4.699707
243364, 0.786987, 0.656982, -0.250366, 10.131836, -1.525879, -14.526371
243384, 0.697754, 0.688965, -0.306274, 10.192871, -0.976563, -12.756351
243404, 0.684448, 0.549805, -0.351685, 9.826660, 9.460449, -5.676271
243424, 0.662964, 0.716797, -0.375366, 3.540040, 33.325195, -7.995607
243444, 0.618896, 0.697266, -0.252075, 6.835939, 32.043457, -4.089355
243464, 0.693848, 0.690063, -0.340454, 5.554201, 41.687012, -0.366211
243484, 0.761108, 0.664551, -0.310669, 2.929688, 22.644051, -2.563477
243504, 0.798218, 0.660889, -0.314941, 0.366211, -5.676271, -3.234864
243524, 0.786743, 0.629761, -0.296509, -5.065918, -24.597176, -5.310059
243544, 0.713867, 0.662842, -0.275391, -5.310059, -31.372078, -2.563477
243564, 0.678467, 0.705444, -0.308838, -0.183106, -27.038582, -2.380371
243584, 0.621582, 0.554932, -0.278442, 6.652834, 8.361816, -6.896975
243604, 0.560669, 0.714844, -0.259644, 12.390141, 34.179688, 3.540040
243624, 0.609009, 0.588379, -0.321533, 13.366703, 45.959488, 19.104004
243644, 0.804199, 0.585205, -0.350952, -3.540040, 31.188972, 19.714355
243664, 0.907837, 0.651611, -0.214722, -16.479492, -24.902351, -0.549316
243684, 0.878784, 0.669678, -0.172363, -7.995607, -58.166519, -9.704590
243704, 0.783569, 0.702515, -0.252563, -0.610352, -74.584961, -16.479492
243724, 0.655151, 0.695923, -0.284424, 3.295899, -71.166992, -14.038090
243744, 0.656372, 0.629883, -0.306152, 6.164553, -62.927261, -9.582520
243764, 0.660889, 0.631836, -0.354248, 2.990724, -59.570328, -11.840824
243784, 0.635986, 0.669067, -0.350342, 1.281738, -58.593765, -14.770512
243804, 0.602905, 0.659058, -0.351685, 4.089355, -57.678238, -14.343266
243824, 0.565552, 0.663696, -0.401123, 3.417970, -49.499527, -11.535648
243844, 0.578247, 0.692627, -0.374634, 2.136230, -28.747566, -3.662110
243864, 0.598633, 0.695679, -0.359863, 3.601075, -15.747074, 2.258301
243884, 0.621460, 0.692993, -0.381958, 4.211426, -6.713869, 3.967286
243904, 0.637085, 0.697632, -0.388306, 5.493164, -2.563477, 4.211426
243924, 0.666138, 0.671875, -0.439087, 7.751467, -3.845216, -1.281738
243944, 0.649170, 0.662109, -0.461548, 4.577637, -9.460449, -8.911133
243964, 0.599121, 0.674194, -0.439697, 4.638672, -14.221195, -9.460449
243984, 0.574341, 0.662231, -0.474609, 1.831055, -12.146000, -8.789063
244004, 0.545776, 0.700317, -0.447876, -1.525879, -4.638672, -3.112794
244024, 0.574463, 0.731079, -0.422241, 0.976563, 2.014160, 5.798342
244044, 0.672607, 0.667358, -0.436401, 2.868653, 0.488281, 5.187988
244064, 0.654053, 0.649292, -0.447632, 0.976563, -6.591799, -0.122070
244084, 0.608521, 0.647827, -0.440918, -0.061035, -9.521484, -1.464844
244104, 0.578613, 0.659546, -0.445801, 0.671387, -6.469728, -1.159668
244124, 0.570068, 0.659424, -0.452637, -0.305176, -0.305176, 0.427246
244144, 0.585693, 0.655151, -0.439697, -0.671387, 4.272461, 0.671387
244164, 0.610718, 0.649780, -0.419067, -0.854492, 6.835939, 0.122070
244184, 0.623779, 0.657227, -0.410400, -1.220703, 7.629396, -0.305176
244204, 0.635864, 0.678223, -0.392700, -1.586915, 7.446291, 1.098633
244224, 0.647095, 0.699707, -0.410034, 0.244141, 5.249023, 2.746582
244244, 0.659546, 0.691772, -0.412720, 2.136230, 0.610352, 1.342773
244264, 0.626099, 0.679688, -0.430054, 2.990724, -4.150391, 0.671387
244284, 0.597168, 0.671265, -0.439941, 2.563477, -4.089355, 0.915528
244304, 0.589600, 0.663330, -0.436035, 1.403809, -1.159668, 1.892090
244324, 0.595337, 0.668701, -0.426758, 1.098633, 0.793457, 4.028320
244344, 0.604492, 0.669312, -0.428101, 1.586915, 1.953125, 5.737307
244364, 0.618164, 0.671875, -0.419922, 2.197266, 3.173829, 7.446291
244384, 0.628052, 0.672729, -0.416260, 3.112794, 3.112794, 9.521484
244404, 0.640747, 0.659668, -0.428223, 2.746582, 2.380371, 7.812502
244424, 0.659302, 0.649536, -0.425171, 3.112794, -0.610352, 3.723145
244444, 0.652588, 0.618530, -0.428833, 2.380371, -1.403809, -0.976563
244464, 0.631104, 0.641357, -0.432983, 0.793457, 0.061035, -3.723145
244484, 0.614868, 0.655884, -0.432495, 0.122070, 3.112794, -3.295899
244504, 0.617065, 0.663330, -0.431396, -0.061035, 4.211426, 0.122070
244524, 0.637695, 0.676392, -0.467041, -1.525879, 8.666992, -1.037598
244544, 0.659058, 0.620117, -0.322510, 1.159668, -5.981447, 6.713869
244564, 0.674438, 0.641846, -0.411011, 4.089355, -0.183106, -9.338379
244584, 0.591553, 0.805054, -0.535645, 1.159668, 5.798342, -1.037598
244604, 0.694458, 0.624512, -0.393799, 4.821777, -2.807618, -0.305176
244624, 0.633301, 0.646729, -0.451294, 2.929688, -7.141115, -4.028320
244644, 0.607300, 0.615967, -0.425415, 0.305176, -6.774904, -5.065918
244664, 0.596069, 0.693970, -0.463501, -1.220703, -2.929688, -1.159668
244684, 0.620117, 0.667114, -0.409424, 0.854492, 0.366211, 2.197266
244704, 0.639526, 0.656494, -0.437134, 0.915528, 0.610352, 1.525879
244724, 0.631348, 0.656128, -0.420166, 0.000000, 0.183106, 1.220703
244744, 0.630005, 0.663574, -0.432983, 1.159668, 0.366211, 1.342773
244764, 0.624390, 0.668579, -0.452148, 1.647950, 0.732422, 1.770020
244784, 0.626099, 0.651245, -0.456299, -15.563969, -0.122070, 2.563477
244804, 0.626343, 0.639771, -0.418457, -1.586915, -0.122070, 3.051759
244824, 0.633057, 0.642456, -0.415527, -1.281738, 0.915528, 2.136230
244844, 0.618774, 0.679565, -0.431396, -1.098633, 2.929688, 3.723145
244864, 0.644653, 0.678467, -0.427246, -0.244141, 4.943848, 6.225588
244884, 0.669189, 0.666748, -0.407593, 2.441406, 2.197266, 5.615236
244904, 0.652954, 0.633789, -0.430542, 1.647950, -1.342773, 4.150391
244924, 0.653809, 0.637573, -0.426636, -2.014160, -1.953125, 3.234864
244944, 0.645630, 0.659912, -0.406494, -1.464844, -1.220703, 2.380371
244964, 0.646606, 0.670776, -0.411133, 0.976563, -0.244141, 3.967286
244984, 0.657471, 0.645386, -0.422607, 1.586915, -2.624512, 4.638672
245004, 0.659546, 0.636597, -0.404785, 1.403809, -5.126953, 3.967286
245024, 0.656128, 0.628052, -0.388184, 2.502441, -6.164553, 1.464844
245044, 0.638184, 0.632690, -0.421997, 3.112794, -4.943848, 0.061035
245064, 0.630981, 0.627319, -0.438965, 1.464844, -2.929688, 0.244141
245084, 0.632446, 0.633179, -0.431519, 0.122070, -0.976563, 0.976563
245104, 0.643433, 0.645142, -0.429077, 0.061035, -0.366211, 1.281738
245124, 0.645630, 0.661865, -0.437744, 1.037598, -1.586915, 0.854492
245144, 0.641357, 0.662476, -0.450806, 1.403809, -2.685547, 1.342773
245164, 0.643066, 0.654175, -0.407593, 1.464844, -3.479005, 1.647950
245184, 0.645996, 0.635010, -0.429688, 2.380371, -3.173829, 0.244141
245204, 0.636597, 0.619873, -0.438721, 2.075195, -2.136230, -1.403809
245224, 0.630005, 0.626465, -0.438477, 1.159668, 0.000000, -2.136230
245244, 0.633789, 0.634155, -0.436035, 1.037598, 2.319336, -2.563477
245264, 0.636719, 0.630615, -0.433105, 0.915528, 2.990724, -2.807618
245284, 0.632202, 0.637573, -0.435181, 0.000000, 2.563477, -0.976563
245304, 0.646729, 0.641724, -0.425293, -0.366211, 2.746582, -0.915528
245324, 0.662354, 0.643188, -0.422729, -0.244141, 1.647950, -2.319336
245344, 0.650757, 0.655640, -0.426636, -0.183106, -0.244141, -2.014160
245364, 0.646729, 0.662720, -0.431763, 0.915528, -0.122070, 0.244141
245384, 0.651245, 0.650146, -0.430176, 0.732422, -0.122070, 1.342773
245404, 0.651489, 0.647461, -0.432251, 0.061035, -1.159668, 1.281738
245424, 0.649170, 0.640991, -0.426514, 0.244141, -2.014160, 0.244141
245444, 0.640869, 0.636353, -0.432373, 1.586915, -2.807618, -0.915528
245464, 0.630615, 0.635132, -0.450195, 0.732422, -1.770020, -1.281738
245484, 0.628296, 0.640869, -0.437500, -0.305176, -0.610352, -0.305176
245504, 0.642456, 0.646973, -0.430298, 0.305176, 0.671387, -0.549316
245524, 0.647095, 0.646973, -0.429932, 0.549316, 0.976563, -0.854492
245544, 0.636841, 0.653320, -0.427124, 0.244141, 1.647950, 0.915528
245564, 0.651978, 0.647949, -0.421021, 0.427246, 1.770020, 1.342773
245584, 0.650879, 0.643555, -0.423950, 1.098633, 0.305176, 0.854492
245604, 0.646118, 0.644043, -0.433960, 1.403809, -0.793457, 0.610352
245624, 0.640747, 0.639771, -0.433716, 0.854492, -0.366211, 0.427246
245644, 0.630737, 0.647217, -0.432251, 0.488281, 1.647950, 0.854492
245664, 0.638672, 0.646362, -0.431519, 0.793457, 3.784181, 0.976563
245684, 0.648438, 0.640259, -0.428589, 1.342773, 5.065918, 0.671387
245704, 0.656494, 0.632935, -0.422974, 1.342773, 3.967286, 1.281738
245724, 0.655518, 0.636475, -0.424438, 0.427246, 3.112794, 1.464844
245744, 0.651733, 0.641724, -0.419922, 0.122070, 2.685547, 1.342773
245764, 0.655273, 0.643677, -0.419922, 1.403809, 1.647950, 0.427246
245784, 0.651001, 0.648682, -0.430786, 2.319336, 2.075195, -0.427246
245804, 0.657349, 0.638550, -0.424927, 2.441406, 2.380371, -1.037598
245824, 0.650757, 0.635010, -0.421509, 2.197266, 1.953125, -1.098633
245844, 0.656250, 0.630981, -0.414917, 1.464844, 1.403809, -0.427246
245864, 0.665161, 0.639893, -0.406128, 1.708985, -0.122070, -1.220703
245884, 0.658081, 0.650269, -0.429077, 2.563477, -1.281738, -2.197266
245904, 0.653687, 0.652100, -0.431030, 2.441406, -1.220703, -1.403809
245924, 0.653076, 0.635620, -0.426025, 1.831055, -1.770020, -0.976563
245944, 0.644531, 0.644287, -0.430176, 1.037598, -1.708985, -1.342773
245964, 0.640625, 0.654541, -0.428711, 1.770020, -0.793457, -0.610352
245984, 0.647827, 0.640503, -0.424683, 2.319336, -0.549316, 1.281738
246004, 0.662598, 0.618286, -0.424805, 1.892090, -1.586915, 0.854492
246024, 0.655884, 0.616455, -0.428101, -0.305176, -2.258301, -0.793457
246044, 0.636841, 0.643799, -0.422241, -1.098633, -0.671387, 0.122070
246064, 0.641846, 0.646851, -0.419434, -0.244141, 1.770020, 1.281738
246084, 0.648193, 0.644409, -0.427490, -0.061035, 1.464844, 0.976563
246104, 0.649170, 0.648438, -0.435059, -0.122070, -0.183106, -0.183106
246124, 0.636963, 0.651001, -0.438843, 0.122070, 0.488281, 0.854492
246144, 0.651245, 0.641724, -0.426636, -0.427246, 1.464844, 1.831055
246164, 0.654785, 0.637451, -0.417969, -0.183106, 1.647950, 0.976563
246184, 0.651367, 0.637451, -0.424805, -0.183106, 0.732422, 0.915528
246204, 0.650146, 0.631226, -0.419434, -0.122070, 0.793457, 1.037598
246224, 0.650146, 0.630615, -0.419312, -0.488281, 1.831055, 1.953125
246244, 0.659302, 0.629639, -0.414551, -0.793457, 2.319336, 2.075195
246264, 0.662720, 0.632324, -0.417236, -0.244141, 2.136230, 1.281738
246284, 0.663696, 0.626465, -0.428711, -0.793457, 1.831055, -0.061035
246304, 0.663452, 0.639160, -0.419189, -0.305176, 1.708985, -1.281738
246324, 0.659058, 0.639038, -0.421875, -0.549316, 1.342773, -0.793457
246344, 0.664063, 0.639648, -0.411011, -0.793457, 1.403809, -0.061035
246364, 0.668701, 0.634399, -0.396362, -0.244141, 0.671387, -0.732422
246384, 0.656372, 0.642822, -0.405640, -0.183106, -0.183106, -0.610352
246404, 0.653076, 0.659424, -0.414063, 0.427246, 1.342773, 0.244141
246424, 0.662964, 0.653320, -0.412720, 1.342773, 1.586915, 1.220703
246444, 0.664673, 0.639771, -0.417236, 1.892090, 0.610352, 1.281738
246464, 0.667969, 0.621216, -0.418335, 0.854492, -0.915528, 0.122070
246484, 0.662842, 0.621826, -0.406372, -0.122070, -1.403809, -1.342773
246504, 0.663940, 0.633667, -0.421387, 0.488281, -1.892090, -1.098633
246524, 0.659058, 0.644653, -0.425171, 0.061035, -1.403809, -1.098633
246544, 0.659546, 0.639648, -0.410645, 0.427246, -1.159668, -1.098633
246564, 0.656860, 0.641479, -0.411377, 0.610352, -1.647950, -1.220703
246584, 0.658081, 0.643311, -0.412231, 0.549316, -3.356935, -0.427246
246604, 0.654541, 0.644775, -0.411743, 0.854492, -4.272461, -0.427246
246624, 0.650757, 0.640869, -0.419189, 0.793457, -3.723145, -0.671387
246644, 0.646240, 0.638916, -0.422119, -0.061035, -2.563477, -0.122070
246664, 0.646484, 0.643677, -0.418823, -0.183106, -1.220703, -0.305176
246684, 0.652832, 0.650513, -0.429443, 0.671387, 0.671387, 0.488281
246704, 0.663574, 0.641968, -0.432373, 0.427246, 0.488281, 0.549316
246724, 0.664795, 0.632446, -0.413696, 0.183106, -0.793457, 0.000000
246744, 0.659912, 0.636841, -0.409790, 0.427246, -1.220703, -0.427246
246764, 0.654297, 0.634644, -0.400879, 1.159668, -1.342773, 0.427246
246784, 0.655396, 0.619019, -0.421631, 0.549316, -0.671387, -2.380371
246804, 0.641846, 0.710327, -0.468506, 1.159668, 1.464844, 2.380371
246824, 0.674316, 0.571411, -0.367065, -0.183106, -2.807618, 1.037598
246844, 0.646118, 0.656128, -0.433105, 0.305176, -2.685547, -3.967286
246864, 0.640625, 0.639160, -0.406738, -0.061035, -0.854492, -0.122070
246884, 0.654663, 0.648193, -0.437378, 0.305176, 0.976563, 1.159668
246904, 0.652954, 0.632935, -0.417480, -0.366211, 1.220703, 2.014160
246924, 0.665405, 0.651123, -0.417725, -0.793457, 1.464844, 2.319336
246944, 0.676636, 0.665283, -0.401489, 0.488281, -0.610352, 3.601075
246964, 0.665771, 0.583008, -0.333740, 4.699707, -12.634281, 8.850098
246984, 0.688354, 0.769775, -0.584961, 0.183106, 9.826660, -4.150391
247004, 0.640991, 0.637817, -0.325439, -0.488281, -9.765625, 16.723633
247024, 0.767578, 0.578979, -0.386963, 5.187988, -12.512211, 3.967286
247044, 0.634888, 0.666138, -0.471924, -1.892090, -9.704590, -0.183106
247064, 0.692993, 0.624146, -0.430420, 5.126953, -11.352543, 1.647950
247084, 0.641724, 0.597900, -0.477905, 1.342773, -10.009766, -1.647950
247104, 0.637207, 0.586426, -0.443604, 1.953125, -9.277344, -2.502441
247124, 0.640381, 0.561401, -0.463257, -0.427246, -8.544922, -7.568361
247144, 0.611572, 0.607910, -0.439941, -2.563477, -7.263186, -9.826660
247164, 0.615967, 0.618896, -0.436646, -1.525879, -5.004883, -8.850098
247184, 0.638916, 0.628418, -0.429565, -3.967286, -2.990724, -8.972168
247204, 0.642822, 0.655273, -0.406006, -4.150391, -2.075195, -7.507326
247224, 0.650269, 0.673218, -0.422485, -2.319336, -1.831055, -7.080080
247244, 0.623657, 0.679810, -0.442139, -1.159668, -1.159668, -4.577637
247264, 0.633911, 0.666992, -0.446533, 0.793457, -1.403809, -2.075195
247284, 0.623779, 0.657837, -0.444580, 2.685547, -1.647950, -1.464844
247304, 0.632935, 0.632568, -0.457886, 2.685547, 0.244141, -3.356935
247324, 0.584961, 0.642700, -0.442383, 2.136230, 4.821777, -1.342773
247344, 0.608765, 0.647217, -0.434692, 1.464844, 10.375977, 2.624512
247364, 0.635010, 0.648560, -0.434814, 1.586915, 12.756351, 3.051759
247384, 0.622192, 0.645264, -0.437134, 2.380371, 14.465336, 5.676271
247404, 0.631348, 0.639160, -0.429810, 1.220703, 15.441898, 8.666992
247424, 0.678711, 0.634644, -0.417725, 1.281738, 14.831547, 5.920412
247444, 0.675415, 0.632080, -0.419434, -0.122070, 7.690432, -0.366211
247464, 0.687622, 0.654419, -0.418579, 0.244141, 3.906251, -2.319336
247484, 0.683960, 0.651245, -0.427368, 0.793457, 0.671387, -3.784181
247504, 0.658936, 0.643555, -0.409424, -0.732422, -1.586915, -4.211426
247524, 0.654907, 0.668579, -0.415039, 0.488281, 0.244141, -3.906251
247544, 0.652954, 0.637573, -0.393311, 1.647950, -1.586915, -2.563477
247564, 0.642090, 0.632813, -0.418091, 1.770020, -2.563477, -3.845216
247584, 0.631104, 0.651123, -0.427368, 1.098633, -0.793457, -1.770020
247604, 0.630615, 0.655151, -0.422119, 1.647950, 1.953125, 1.342773
247624, 0.656006, 0.648560, -0.429688, 1.159668, 2.624512, 1.953125
247644, 0.674805, 0.637939, -0.415894, 0.793457, -2.868653, -1.281738
247664, 0.657959, 0.648438, -0.416504, 1.220703, -4.638672, -2.014160
247684, 0.646118, 0.651978, -0.423340, 1.708985, -2.868653, -1.403809
247704, 0.636475, 0.643921, -0.417847, 1.708985, -1.220703, 0.976563
247724, 0.647949, 0.634277, -0.408203, 1.342773, -1.220703, 2.136230
247744, 0.657715, 0.637695, -0.416504, 1.037598, -1.708985, 0.610352
247764, 0.655273, 0.650391, -0.428711, 0.793457, -2.075195, -0.793457
247784, 0.640625, 0.645996, -0.437012, 0.793457, -1.708985, -0.549316
247804, 0.641113, 0.630127, -0.429932, -0.061035, -0.915528, -0.671387
247824, 0.635010, 0.649292, -0.428345, 0.366211, 0.427246, 1.220703
247844, 0.643433, 0.650513, -0.434570, 0.061035, 2.380371, 2.258301
247864, 0.655884, 0.640381, -0.429199, -0.427246, 2.746582, 0.732422
247884, 0.645996, 0.628662, -0.427124, -0.915528, 1.708985, -0.854492
247904, 0.639771, 0.625122, -0.429199, -1.586915, 2.075195, -0.549316
247924, 0.631470, 0.623779, -0.429443, -3.662110, 4.028320, 0.915528
247944, 0.642700, 0.632324, -0.415405, -5.371094, 7.080080, 2.197266
247964, 0.669678, 0.626099, -0.396851, -5.920412, 7.995607, 1.708985
247984, 0.671631, 0.636353, -0.403931, -6.225588, 8.117676, -2.014160
248004, 0.679932, 0.642334, -0.377075, -3.723145, 5.126953, -4.455566
248024, 0.656372, 0.656494, -0.409668, -1.586915, 0.427246, -5.737307
248044, 0.644043, 0.666504, -0.400269, -3.234864, 2.502441, -3.295899
248064, 0.652588, 0.671997, -0.382080, -1.647950, 4.028320, -1.281738
248084, 0.660767, 0.666016, -0.401367, -0.854492, 4.272461, -1.525879
248104, 0.670654, 0.672241, -0.385620, -0.305176, 2.136230, -0.305176
248124, 0.669434, 0.659302, -0.376587, 1.159668, -0.549316, 0.183106
248144, 0.661011, 0.662720, -0.390625, 1.708985, -0.732422, -0.061035
248164, 0.666016, 0.657471, -0.396362, 2.014160, -1.953125, 0.061035
248184, 0.659302, 0.655518, -0.402100, 1.342773, -2.685547, -0.366211
248204, 0.653809, 0.654785, -0.391602, 2.075195, -4.760742, -0.122070
248224, 0.647583, 0.652954, -0.406738, 2.014160, -3.662110, -0.122070
248244, 0.640869, 0.659912, -0.406372, 1.403809, -1.770020, 1.098633
248264, 0.652100, 0.650146, -0.395874, 2.136230, -1.770020, 2.258301
248284, 0.661377, 0.652832, -0.413696, 1.525879, -1.708985, 0.915528
248304, 0.658813, 0.648315, -0.401367, 0.671387, -3.051759, 0.793457
248324, 0.656006, 0.644165, -0.401123, 1.159668, -3.234864, 0.000000
248364, 0.646484, 0.646484, -0.398071, 1.037598, -1.831055, 0.854492
248384, 0.656860, 0.640625, -0.414429, 0.488281, -1.647950, 0.244141
248404, 0.652344, 0.651001, -0.411865, 0.549316, -3.356935, 0.000000
248424, 0.649414, 0.649902, -0.415527, -0.244141, -2.807618, 0.427246
248444, 0.649414, 0.648926, -0.399170, -0.183106, -1.098633, 0.183106
248464, 0.647583, 0.652954, -0.408203, 0.732422, 0.183106, 0.244141
248484, 0.656616, 0.652344, -0.411011, 0.427246, -0.061035, 0.549316
248504, 0.659302, 0.646240, -0.400391, 1.037598, -1.586915, 0.244141
248524, 0.651245, 0.643921, -0.411987, 0.610352, -1.586915, -0.305176
248544, 0.646484, 0.656128, -0.412109, 0.183106, -0.854492, 0.122070
248564, 0.652222, 0.655518, -0.409302, 0.305176, 0.000000, 0.671387
248584, 0.662720, 0.644409, -0.403442, 0.671387, -1.342773, 0.671387
248604, 0.655884, 0.640503, -0.408569, 0.122070, -1.770020, -0.122070
248624, 0.649536, 0.647583, -0.403320, -0.122070, -1.403809, 0.244141
248644, 0.655396, 0.651489, -0.405640, 0.305176, -0.488281, 0.427246
248664, 0.655518, 0.648193, -0.412476, 0.122070, -1.037598, 0.305176
248684, 0.652466, 0.649292, -0.411377, -0.183106, -0.976563, 0.366211
248704, 0.655029, 0.651245, -0.404175, 0.305176, -1.831055, 0.427246
248724, 0.655151, 0.650513, -0.411621, 0.427246, -1.403809, -0.183106
248744, 0.650513, 0.651245, -0.408081, 0.000000, -0.610352, -0.183106
248764, 0.650757, 0.651611, -0.398315, 0.854492, -0.854492, 0.183106
248784, 0.651245, 0.665649, -0.432007, 0.244141, 1.159668, -0.488281
248804, 0.658691, 0.628418, -0.384277, -0.305176, -1.159668, 1.708985
248824, 0.661743, 0.650513, -0.395508, 0.793457, -0.671387, -1.281738
248844, 0.651367, 0.661011, -0.427246, 1.037598, -0.122070, -0.427246
248864, 0.650391, 0.650024, -0.412598, 0.427246, -1.342773, 0.549316
248884, 0.654907, 0.643433, -0.413818, 0.244141, -0.793457, -0.549316
248904, 0.652100, 0.647583, -0.404297, -0.183106, -0.854492, -0.366211
248924, 0.655273, 0.642090, -0.403076, 0.061035, -1.220703, 0.061035
248944, 0.649536, 0.653198, -0.417603, -0.122070, -0.122070, -0.122070
248964, 0.654663, 0.645386, -0.417114, -0.610352, -0.244141, 0.305176
248984, 0.648926, 0.638550, -0.420776, -1.770020, 0.305176, -1.098633
249004, 0.625000, 0.634521, -0.412720, -2.075195, 1.464844, -1.831055
249024, 0.620972, 0.638428, -0.442627, -3.356935, 5.737307, 0.427246
249044, 0.637817, 0.643311, -0.438354, -7.690432, 8.850098, 1.220703
249064, 0.662109, 0.640137, -0.398193, -8.972168, 7.751467, -0.061035
249084, 0.659058, 0.642822, -0.382813, -9.460449, 5.615236, -1.953125
249104, 0.659180, 0.650757, -0.353149, -6.835939, 5.676271, -1.525879
249124, 0.652344, 0.607666, -0.400391, -6.530764, 9.399414, -2.807618
249144, 0.663940, 0.530762, -0.469604, -16.845703, 11.962894, -17.333984
249164, 0.560059, 0.524414, -0.412109, -27.465828, 16.296387, -26.306160
249184, 0.499390, 0.621582, -0.425537, -35.400391, 34.851074, -23.803719
249204, 0.577393, 0.970337, -0.247803, -24.658211, 34.667969, 26.489265
249224, 1.024292, 0.716919, -0.298584, -16.662598, 42.175293, 14.038090
249244, 0.801025, 0.672607, -0.166382, -15.808109, -0.122070, 4.394531
249264, 0.802246, 0.672119, -0.209473, -11.047363, -27.709969, 4.333496
249284, 0.724243, 0.661011, -0.198608, -10.742188, -38.879395, 1.708985
249304, 0.564209, 0.689697, -0.287231, -25.146492, -18.249512, 7.080080
249324, 0.612793, 0.774780, -0.254395, -26.855476, -13.122562, 18.005371
249344, 0.639404, 0.771729, -0.270874, -21.728516, -14.465336, 12.512211
249364, 0.551880, 0.757202, -0.325562, -20.629883, -15.869144, 11.230473
249384, 0.609985, 0.780762, -0.331299, -17.028809, -13.793949, 9.338379
249404, 0.622437, 0.740234, -0.348999, -15.808109, -10.498047, 4.089355
249424, 0.588867, 0.741943, -0.320190, -12.329105, -6.347658, 2.929688
249444, 0.618896, 0.714966, -0.347778, -12.146000, 2.380371, 2.563477
249464, 0.656616, 0.727051, -0.312012, -10.559082, 7.751467, -0.671387
249484, 0.640137, 0.715576, -0.262817, -5.859377, 6.408693, -0.793457
249504, 0.691040, 0.710938, -0.303833, -0.549316, 7.629396, -4.333496
249524, 0.696777, 0.677246, -0.297485, 0.366211, 3.234864, -7.690432
249544, 0.664917, 0.672241, -0.320068, 0.610352, 1.831055, -8.728027
249564, 0.630859, 0.687866, -0.306763, -1.281738, 7.141115, -5.676271
249584, 0.645264, 0.686401, -0.269897, 1.770020, 15.136723, -4.455566
249604, 0.680542, 0.684937, -0.287720, 2.136230, 16.662598, -4.577637
249624, 0.680542, 0.697144, -0.277100, 3.540040, 11.779789, -3.723145
249644, 0.675903, 0.698608, -0.279907, 5.065918, 10.314941, -1.525879
249664, 0.661377, 0.713013, -0.285034, 11.047363, 12.878422, -4.943848
249684, 0.667480, 0.703735, -0.254150, 13.061527, 11.047363, -3.662110
249704, 0.741699, 0.645874, -0.258423, 13.000492, 7.507326, -5.249023
249724, 0.700073, 0.653687, -0.273682, 16.296387, 7.324221, -3.295899
249744, 0.701172, 0.663208, -0.251953, 15.380863, 11.230473, -2.807618
249764, 0.736572, 0.630127, -0.257202, 15.869144, 9.765625, -2.502441
249784, 0.797485, 0.651611, -0.265015, 9.399414, 4.516602, -2.014160
249804, 0.798096, 0.665527, -0.250488, 10.314941, -8.972168, -7.812502
249824, 0.727417, 0.659302, -0.246704, 15.563969, -25.451668, -11.169437
249844, 0.666504, 0.652954, -0.319214, 15.441898, -24.414070, -8.300781
249864, 0.722046, 0.629150, -0.229858, 15.563969, -31.555183, -5.065918
249884, 0.767212, 0.655273, -0.322632, 8.544922, -44.128418, -4.943848
249904, 0.739868, 0.665894, -0.274780, 0.549316, -64.819336, -7.446291
249924, 0.518188, 0.769287, -0.289673, -5.920412, -63.171402, -6.958010
249944, 0.330322, 0.798340, -0.279175, -14.709476, -48.522964, 7.202150
249964, 0.359009, 0.816650, -0.292969, -26.672371, -18.066406, 26.306160
249984, 0.642578, 0.853271, -0.245117, -26.367195, -1.159668, 21.606445
250004, 0.794312, 0.749756, -0.286011, -27.038582, -10.131836, 8.178711
250024, 0.854736, 0.682007, -0.251343, -19.226074, -30.456551, -3.662110
250044, 0.856689, 0.610474, -0.261963, -8.422852, -60.668961, -11.169437
250064, 0.770264, 0.559692, -0.433594, -6.774904, -75.134277, -13.244633
250084, 0.611816, 0.616699, -0.527100, -12.817387, -68.725586, -12.939457
250104, 0.415649, 0.760986, -0.548096, -12.329105, -43.395996, -9.277344
250124, 0.343872, 0.803101, -0.584106, -1.342773, -29.357918, -18.432617
250144, 0.169434, 0.708252, -0.562866, -9.521484, -4.577637, -6.835939
250164, 0.397461, 0.749268, -0.378906, -11.779789, 16.235352, 13.793949
250184, 0.608154, 0.753662, -0.276245, -3.723145, 19.226074, 16.235352
