timestamp,ax,ay,az,gx,gy,gz
1929055, 0.564697, 0.183594, -0.763062, 23.193367, 52.917496, 14.770512
1929075, 0.626099, 0.177979, -0.708618, 16.845703, 61.767593, 2.136230
1929095, 0.692749, 0.145386, -0.635498, 17.822266, 65.063477, -14.831547
1929115, 0.759888, 0.072632, -0.592285, 19.714355, 47.119156, -46.386734
1929135, 0.668945, 0.196777, -0.600098, 15.075687, 12.268070, -77.636719
1929155, 0.669189, 0.256226, -0.650879, 12.573246, 15.502934, -77.880859
1929175, 0.704590, 0.291138, -0.666748, 4.333496, 28.015144, -81.726074
1929195, 0.704102, 0.430176, -0.642578, -10.925293, 46.020523, -59.936539
1929215, 0.774658, 0.479126, -0.540283, -19.165039, 60.913101, -17.639160
1929235, 0.938843, 0.384033, -0.445557, -18.798828, 55.480972, -5.615236
1929255, 0.960815, 0.356323, -0.415283, -19.104004, 24.719246, -18.676758
1929275, 0.857788, 0.450195, -0.513672, -17.761230, -8.117676, -15.686039
1929295, 0.813721, 0.517334, -0.595337, -13.183598, -18.615723, -9.765625
1929315, 0.775757, 0.457397, -0.580322, -4.394531, -26.000984, -8.361816
1929335, 0.647095, 0.342896, -0.638062, 2.624512, -38.452148, -14.587406
1929355, 0.570557, 0.363281, -0.685425, -1.403809, -29.296883, -14.648441
1929375, 0.547485, 0.403442, -0.687500, -4.577637, -9.399414, -9.399414
1929395, 0.620605, 0.423096, -0.668091, -4.760742, 5.493164, -2.746582
1929415, 0.659668, 0.423584, -0.636108, -3.784181, 9.033203, -2.868653
1929435, 0.665283, 0.418091, -0.602051, -2.197266, 11.779789, -1.098633
1929455, 0.731567, 0.426392, -0.603760, -2.807618, 9.765625, 0.976563
1929475, 0.744629, 0.429077, -0.588379, -2.258301, 2.014160, 0.488281
1929495, 0.696777, 0.410767, -0.585938, -0.671387, -0.976563, 1.342773
1929515, 0.691528, 0.404907, -0.612183, -2.868653, -0.305176, 1.464844
1929535, 0.687134, 0.429565, -0.612427, -1.708985, 0.549316, 2.807618
1929555, 0.684814, 0.426392, -0.614258, -0.061035, 0.976563, 3.601075
1929575, 0.688354, 0.408569, -0.610718, 0.000000, 0.732422, 2.197266
1929595, 0.686890, 0.410522, -0.605103, -0.061035, 0.061035, 0.671387
1929615, 0.692017, 0.418701, -0.609253, 0.671387, -0.427246, 1.708985
1929635, 0.704468, 0.405762, -0.609497, 0.549316, -0.122070, 3.051759
1929655, 0.683472, 0.407471, -0.592773, -0.305176, 0.793457, 3.601075
1929675, 0.702637, 0.396973, -0.599121, 0.549316, 0.183106, 0.915528
1929695, 0.688599, 0.406982, -0.611084, 0.488281, 1.525879, -0.122070
1929715, 0.693237, 0.407593, -0.611816, 0.549316, 0.305176, -0.549316
1929735, 0.690308, 0.398438, -0.602295, 0.305176, 0.122070, -1.464844
1929755, 0.692139, 0.390015, -0.599854, 0.000000, 0.061035, -3.051759
1929775, 0.696167, 0.410278, -0.604614, -0.793457, -0.244141, -3.417970
1929795, 0.695435, 0.424683, -0.603882, -0.976563, -0.122070, -1.220703
1929815, 0.698364, 0.417236, -0.603760, -0.671387, -0.061035, -0.183106
1929835, 0.691895, 0.401367, -0.596924, -0.793457, 0.000000, -0.061035
1929855, 0.694214, 0.401001, -0.600586, -0.976563, -0.610352, -1.159668
1929875, 0.695068, 0.415405, -0.600586, 0.488281, -0.915528, -2.441406
1929895, 0.695068, 0.406616, -0.604614, 2.014160, -0.183106, -1.831055
1929915, 0.697876, 0.371094, -0.590820, 4.028320, 0.183106, -5.371094
1929935, 0.727539, 0.353638, -0.584473, 3.601075, -5.676271, -12.451176
1929955, 0.697510, 0.319336, -0.598145, 0.244141, -8.178711, -17.700195
1929975, 0.666992, 0.285522, -0.592651, -8.300781, -5.187988, -20.874023
1929995, 0.664185, 0.260498, -0.571533, -17.761230, -0.671387, -25.817879
1930015, 0.680420, 0.311401, -0.567993, -25.573738, 0.366211, -29.296883
1930035, 0.648804, 0.452881, -0.609863, -29.846199, 6.530764, -21.911621
1930055, 0.674927, 0.594971, -0.619141, -29.418953, 13.305668, -12.329105
1930075, 0.687744, 0.595215, -0.570557, -20.263672, 7.507326, -12.146000
1930095, 0.628174, 0.449219, -0.555054, -9.826660, -0.366211, -22.094727
1930115, 0.598999, 0.387207, -0.578613, -10.559082, -38.330078, -23.559578
1930135, 0.669678, 0.493896, -0.652100, -25.085457, 2.319336, -37.963867
1930155, 0.593872, 0.742676, -0.597778, -20.629883, -7.568361, -20.690918
1930175, 0.661377, 0.736450, -0.576782, -9.765625, 12.084965, -5.737307
1930195, 0.679321, 0.612549, -0.553467, -2.197266, 8.056641, 1.525879
1930215, 0.638550, 0.538208, -0.536743, -3.173829, 2.441406, 0.244141
1930235, 0.644287, 0.557739, -0.539917, 0.549316, 0.976563, -3.295899
1930255, 0.665283, 0.542969, -0.551392, 3.051759, -0.549316, -2.075195
1930275, 0.629517, 0.516113, -0.582031, 3.784181, -2.197266, 1.525879
1930295, 0.639282, 0.517456, -0.587402, 1.647950, -0.976563, 1.464844
1930315, 0.643677, 0.487305, -0.554932, 4.333496, 4.028320, 4.272461
1930335, 0.621704, 0.531372, -0.570435, 5.798342, 10.070801, 2.746582
1930355, 0.654053, 0.522583, -0.560425, 9.643555, 14.221195, 2.929688
1930375, 0.577759, 0.551514, -0.536743, 17.883301, -7.141115, 8.605957
1930395, 0.640625, 0.525513, -0.632813, 11.474613, 30.822762, -0.061035
1930415, 0.637207, 0.552856, -0.567261, 12.695316, 29.113777, -0.793457
1930435, 0.647461, 0.543579, -0.587402, 19.775391, 5.004883, -0.915528
1930455, 0.663696, 0.563110, -0.578857, 17.395020, 20.019531, -10.009766
1930475, 0.713257, 0.570679, -0.565430, 19.470215, 3.051759, -18.249512
1930495, 0.670044, 0.546753, -0.565186, 20.324707, -9.216309, -23.864754
1930515, 0.612305, 0.548828, -0.568237, 14.465336, -4.577637, -20.996094
1930535, 0.689819, 0.580811, -0.560669, 11.657719, -5.371094, -22.521980
1930555, 0.659302, 0.532959, -0.556274, 5.126953, -5.798342, -20.263672
1930575, 0.686523, 0.544678, -0.537964, 1.892090, -13.854984, -19.409180
1930595, 0.674438, 0.550659, -0.542358, -0.732422, -21.484375, -18.432617
1930615, 0.678833, 0.513306, -0.567139, -4.943848, -25.146492, -15.991215
1930635, 0.694092, 0.496704, -0.536987, -8.178711, -35.888672, -12.329105
1930655, 0.690552, 0.512451, -0.586182, -12.451176, -53.039566, -6.774904
1930675, 0.668091, 0.511353, -0.606079, -18.859863, -60.546890, -4.394531
1930695, 0.606567, 0.481079, -0.578491, -27.038582, -57.861343, 3.112794
1930715, 0.529785, 0.479980, -0.547241, -22.155769, -44.006348, 11.596684
1930735, 0.488525, 0.493896, -0.585938, -16.357422, -22.705086, 18.859863
1930755, 0.513428, 0.493286, -0.596436, -14.892582, -2.319336, 27.954109
1930775, 0.483765, 0.519531, -0.649414, -14.038090, 16.479492, 34.179688
1930795, 0.571045, 0.561768, -0.656494, -8.972168, 24.963387, 28.686531
1930815, 0.560059, 0.513672, -0.648682, 2.075195, 24.719246, 20.263672
1930835, 0.552246, 0.543701, -0.686279, 8.239746, 20.202637, 10.925293
1930855, 0.562866, 0.562378, -0.609741, 9.521484, 20.874023, 6.530764
1930875, 0.574585, 0.569946, -0.598145, 9.094238, 24.414070, 5.981447
1930895, 0.640137, 0.597534, -0.587036, 2.136230, 21.789551, 5.187988
1930915, 0.705444, 0.591309, -0.564575, -0.183106, 5.493164, 2.746582
1930935, 0.655640, 0.550903, -0.547119, -0.122070, -9.033203, 0.610352
1930955, 0.606445, 0.538086, -0.565186, 2.929688, -9.887695, 1.892090
1930975, 0.610107, 0.536011, -0.588013, 3.417970, -8.361816, 2.502441
1930995, 0.605347, 0.638428, -0.670410, -5.187988, -4.638672, -2.563477
1931015, 0.638184, 0.638672, -0.630493, -15.686039, -5.126953, -7.080080
1931035, 0.601196, 0.567139, -0.563477, -14.160160, -9.765625, -10.986328
1931055, 0.632690, 0.579956, -0.648804, -17.272949, -11.535648, -14.465336
1931075, 0.601685, 0.537231, -0.616089, -24.169930, -18.798828, -13.671879
1931095, 0.594971, 0.549683, -0.582153, -25.329597, -16.052246, -11.962894
1931115, 0.606689, 0.549683, -0.561157, -23.620613, -14.953617, -10.681152
1931135, 0.590332, 0.571167, -0.587036, -23.315437, -14.648441, -10.131836
1931155, 0.558960, 0.570313, -0.603027, -27.221687, -12.634281, -7.446291
1931175, 0.551880, 0.601440, -0.527710, -25.756844, 1.342773, -6.530764
1931195, 0.581299, 0.589478, -0.576904, -23.010262, 14.892582, -8.911133
1931215, 0.592163, 0.662109, -0.503296, -27.221687, 17.395020, -10.925293
1931235, 0.622192, 0.580200, -0.611084, -22.949226, 5.859377, -10.375977
1931255, 0.571777, 0.660522, -0.389404, -15.808109, 17.211914, -10.681152
1931275, 0.648560, 0.480469, -0.615112, -3.112794, 2.807618, -6.713869
1931295, 0.577148, 0.602661, -0.503296, -5.371094, 5.981447, -8.728027
1931315, 0.578247, 0.614380, -0.504272, 0.854492, 1.403809, -5.615236
1931335, 0.550049, 0.672363, -0.555664, 1.220703, 6.835939, -6.469728
1931355, 0.572998, 0.673828, -0.574097, 0.488281, 7.934572, -13.244633
1931375, 0.544678, 0.653687, -0.533569, 3.601075, 2.197266, -16.357422
1931395, 0.523438, 0.623291, -0.531860, 8.666992, 3.112794, -15.502934
1931415, 0.602417, 0.616821, -0.510620, 16.601563, 4.150391, -14.221195
1931435, 0.608398, 0.611572, -0.501709, 24.169930, -7.507326, -15.991215
1931455, 0.569092, 0.616455, -0.502930, 31.494148, -12.146000, -16.418457
1931475, 0.516968, 0.615845, -0.563721, 31.982430, -2.136230, -14.282230
1931495, 0.560791, 0.615601, -0.549805, 31.372078, 1.159668, -13.977055
1931515, 0.564087, 0.610962, -0.567383, 26.794441, 1.586915, -10.437012
1931535, 0.595703, 0.627441, -0.592773, 11.474613, 3.051759, -4.333496
1931555, 0.619507, 0.654419, -0.510254, 5.981447, -8.422852, -3.295899
1931575, 0.614502, 0.651978, -0.546631, 2.624512, -17.211914, -4.028320
1931595, 0.616089, 0.636353, -0.538086, 3.723145, -31.616219, -7.019045
1931615, 0.439941, 0.640259, -0.590698, 5.798342, -30.700691, -7.080080
1931635, 0.415894, 0.618042, -0.645874, 4.882813, -5.676271, -2.746582
1931655, 0.482788, 0.622803, -0.626709, 1.220703, 2.563477, 0.549316
1931675, 0.505981, 0.617065, -0.628540, -1.220703, 3.662110, 2.258301
1931695, 0.519165, 0.627563, -0.588867, -2.441406, 4.943848, 3.051759
1931715, 0.541382, 0.633179, -0.580322, -1.464844, 3.784181, 2.563477
1931735, 0.552490, 0.639648, -0.574097, 0.000000, 3.906251, 1.220703
1931755, 0.588623, 0.672974, -0.553589, 3.845216, 3.540040, -0.549316
1931775, 0.686401, 0.737671, -0.544556, 11.718754, -3.479005, -4.028320
1931795, 0.651733, 1.186768, -0.375488, 48.950211, 11.413578, 55.969254
1931815, 0.908203, 0.740479, -0.400635, 93.139679, -7.873537, 87.036133
1931835, 0.740479, 0.261353, -0.523926, 67.687988, -61.096207, 79.589844
1931855, 0.525635, 0.255127, -0.564087, 38.208008, -86.425781, 55.725113
1931875, 0.448486, 0.399170, -0.729004, 24.414070, -92.590363, 44.982925
1931895, 0.347778, 0.552734, -0.812256, 15.380863, -70.373535, 54.077164
1931915, 0.358154, 0.516479, -0.834229, 11.169437, -48.461929, 68.115234
1931935, 0.343872, 0.384033, -0.816284, 0.732422, -30.822762, 58.593765
1931955, 0.400391, 0.306763, -0.776978, -3.784181, -21.972656, 32.470703
1931975, 0.454224, 0.285156, -0.773560, 0.610352, -21.789551, 2.502441
1931995, 0.391235, 0.324585, -0.814331, 0.244141, -10.314941, -19.348145
1932015, 0.430908, 0.418213, -0.790527, -5.249023, 2.502441, -13.732914
1932035, 0.515991, 0.530273, -0.785522, -5.615236, 0.976563, -5.065918
1932055, 0.490356, 0.514771, -0.744019, -3.601075, 3.417970, 0.976563
