timestamp,ax,ay,az,gx,gy,gz
1598601, 0.264038, 0.914795, -0.331543, 2.380371, 0.427246, 3.540040
1598621, 0.290405, 0.919800, -0.322144, 0.366211, -0.854492, 3.540040
1598641, 0.263306, 0.922363, -0.294800, -0.061035, -1.281738, 3.601075
1598661, 0.278076, 0.917236, -0.308350, 0.122070, 0.305176, 3.723145
1598681, 0.291992, 0.920410, -0.300171, -0.244141, 2.441406, 2.624512
1598701, 0.301514, 0.920776, -0.293335, 0.488281, 0.854492, 1.342773
1598721, 0.303467, 0.921021, -0.297241, 0.854492, -0.305176, -0.427246
1598741, 0.281494, 0.922607, -0.291748, 1.647950, -1.281738, -1.281738
1598761, 0.261719, 0.919678, -0.296387, 2.441406, -0.488281, -0.488281
1598781, 0.276123, 0.917114, -0.314087, 2.319336, 0.732422, 0.305176
1598801, 0.285522, 0.914185, -0.316650, 1.098633, 0.305176, 0.000000
1598821, 0.251221, 0.919067, -0.291260, 0.976563, -1.831055, 0.244141
1598841, 0.256592, 0.926147, -0.281372, 2.685547, -0.915528, 1.342773
1598861, 0.257813, 0.926147, -0.283203, 5.004883, 0.915528, 2.929688
1598881, 0.262817, 0.921265, -0.310547, 5.859377, 3.540040, 3.967286
1598901, 0.244507, 0.921875, -0.314941, 5.493164, 7.324221, 5.493164
1598921, 0.217041, 0.923218, -0.312378, 5.676271, 11.840824, 9.826660
1598941, 0.228027, 0.922241, -0.317383, 5.676271, 20.324707, 14.343266
1598961, 0.304565, 0.923340, -0.300049, 8.850098, 24.780281, 17.700195
1598981, 0.333618, 0.959595, -0.248779, 26.733406, 7.141115, 25.512703
1599001, 0.370728, 1.077515, -0.454712, 41.992188, -4.577637, 33.020020
1599021, 0.361328, 1.046631, -0.660767, 51.452652, -13.183598, 34.790039
1599041, 0.271973, 1.033325, -0.692749, 62.438980, -11.840824, 29.724129
1599061, 0.248413, 0.943970, -0.705566, 74.768066, -0.061035, 21.728516
1599081, 0.265991, 0.765137, -0.730957, 78.247070, 15.747074, 9.277344
1599101, 0.270752, 0.641235, -0.731201, 74.829102, 31.127937, -6.225588
1599121, 0.251831, 0.493286, -0.713623, 63.110367, 34.423828, -18.554688
1599141, 0.190186, 0.404297, -0.646484, 48.400894, 41.076660, -26.367195
1599161, 0.213257, 0.344238, -0.561890, 29.724129, 60.424820, -30.761726
1599181, 0.377563, 0.467407, -0.479858, 16.784668, 68.359375, -30.639656
1599201, 0.372925, 0.692749, -0.299194, 3.662110, 72.937012, -35.339355
1599221, 0.323120, 0.839478, -0.204224, 2.685547, 67.810059, -27.099617
1599241, 0.366577, 0.891968, -0.164673, 0.488281, 57.434097, -16.235352
1599261, 0.438843, 0.854980, -0.182617, -10.986328, 45.471207, -10.253906
1599281, 0.449341, 0.863770, -0.208984, -28.991707, 41.076660, -7.873537
1599301, 0.437378, 0.920654, -0.165527, -45.959488, 39.123535, -2.563477
1599321, 0.432373, 0.998779, -0.079468, -50.537125, 34.179688, -1.220703
1599341, 0.427490, 1.028442, -0.020020, -41.687012, 20.324707, -5.676271
1599361, 0.445557, 1.018433, -0.041626, -33.142090, -2.075195, -13.549809
1599381, 0.409180, 1.120972, -0.204712, -25.817879, -22.583015, -7.629396
1599401, 0.402344, 1.204102, -0.358643, -13.427738, -43.151855, 9.765625
1599421, 0.489380, 0.888672, -0.318481, -6.469728, -37.353516, 6.347658
1599441, 0.492920, 0.821533, -0.379272, -7.141115, -36.926270, -7.690432
1599461, 0.364868, 0.840454, -0.363281, -7.629396, -39.489746, -10.925293
1599481, 0.309814, 0.865112, -0.334351, -5.798342, -45.654312, -3.479005
1599501, 0.317017, 0.884155, -0.352417, -5.065918, -39.978027, -0.976563
1599521, 0.268066, 0.886841, -0.356567, -4.089355, -24.230965, 0.915528
1599541, 0.269165, 0.880737, -0.395630, -5.004883, -9.643555, 5.920412
1599561, 0.366577, 0.866455, -0.407349, -8.789063, -4.333496, 7.873537
1599581, 0.427490, 0.874878, -0.354736, -12.756351, 2.136230, -1.525879
1599601, 0.440308, 0.883301, -0.312988, -11.291508, -0.915528, -7.812502
1599621, 0.408447, 0.888794, -0.312012, -8.666992, -6.896975, -13.000492
1599641, 0.352783, 0.888550, -0.324097, -7.019045, -11.291508, -14.343266
1599661, 0.316528, 0.891724, -0.317505, -5.432129, -11.718754, -13.183598
1599681, 0.288452, 0.893311, -0.323975, -3.845216, -10.620117, -10.559082
1599701, 0.269653, 0.896973, -0.326294, -2.624512, -9.277344, -6.286623
1599721, 0.264771, 0.892090, -0.336426, -1.953125, -6.469728, -1.647950
1599741, 0.281372, 0.890137, -0.346558, -2.258301, -3.234864, 2.136230
1599761, 0.313477, 0.891602, -0.347290, -2.929688, -2.929688, 4.577637
1599781, 0.336792, 0.889160, -0.341187, -4.028320, -3.356935, 4.394531
1599801, 0.334106, 0.890991, -0.338501, -4.211426, -3.723145, 3.967286
1599821, 0.361328, 0.885376, -0.350708, -5.065918, -4.760742, 3.112794
1599841, 0.393799, 0.889404, -0.354980, -6.896975, -8.361816, -0.427246
1599861, 0.394897, 0.880127, -0.368408, -9.399414, -15.258793, -4.272461
1599881, 0.368774, 0.876587, -0.379883, -13.488773, -22.705086, -7.446291
1599901, 0.331055, 0.882080, -0.369507, -17.761230, -24.353035, -8.911133
1599921, 0.314331, 0.900513, -0.295044, -16.174316, -28.320320, -7.568361
1599941, 0.285156, 0.914551, -0.241577, -2.258301, -33.569336, -3.906251
1599961, 0.315674, 0.873657, -0.405273, 6.164553, -39.489746, -0.732422
1599981, 0.215210, 0.894653, -0.419189, -1.586915, -30.395515, -1.342773
1600001, 0.181152, 0.923462, -0.343872, 0.854492, -15.869144, 2.075195
1600021, 0.118530, 0.906616, -0.337891, 9.887695, -1.770020, 5.981447
1600041, 0.174683, 0.914429, -0.348267, 15.258793, 17.456055, 9.582520
1600061, 0.150757, 0.903809, -0.376465, 18.554688, 26.611336, 10.070801
1600081, 0.149536, 0.912476, -0.393433, 15.258793, 41.015625, 12.573246
1600101, 0.152832, 0.952271, -0.305908, 17.883301, 46.936050, 11.108402
1600121, 0.202881, 0.936157, -0.313477, 21.911621, 60.302750, 11.718754
1600141, 0.336060, 0.927856, -0.292847, 27.282722, 57.067886, 2.990724
1600161, 0.319092, 0.945801, -0.291626, 28.564461, 52.185074, -6.652834
1600181, 0.290527, 0.930054, -0.284790, 29.296883, 50.354019, -6.347658
1600201, 0.358521, 0.962646, -0.243164, 28.808601, 50.598160, -10.620117
1600221, 0.406616, 0.958008, -0.238525, 30.334480, 52.978531, -19.897461
1600241, 0.539551, 0.948730, -0.234375, 28.869637, 47.180191, -35.644531
1600261, 0.564453, 0.933594, -0.238525, 24.169930, 37.536621, -55.664078
1600281, 0.576660, 0.845581, -0.289307, 14.526371, 22.033691, -83.129883
1600301, 0.457275, 0.914307, -0.236572, 4.150391, 19.897461, -79.589844
1600321, 0.415527, 0.878662, -0.194092, 3.295899, 13.977055, -69.641113
1600341, 0.464966, 0.834595, -0.320068, -9.338379, 6.774904, -49.499527
1600361, 0.588501, 0.842529, -0.297485, -13.183598, -16.296387, -41.076660
1600381, 0.616943, 0.819336, -0.395508, -20.019531, -39.978027, -43.273926
1600401, 0.531616, 0.809570, -0.414185, -33.386230, -62.316910, -42.968750
1600421, 0.371460, 0.825928, -0.362915, -37.048340, -75.195313, -32.958984
1600441, 0.199341, 0.864990, -0.310913, -28.320320, -76.232910, -10.437012
1600461, 0.086792, 0.895142, -0.291260, -14.892582, -63.659683, 22.216805
1600481, 0.166260, 0.924316, -0.328735, 0.000000, -56.213394, 38.024902
1600501, 0.175171, 0.887939, -0.499512, 4.516602, -42.419434, 35.339355
1600521, 0.143311, 0.887451, -0.498657, 2.075195, -40.405273, 33.569336
1600541, 0.059814, 0.893188, -0.504150, 1.953125, -49.316422, 32.897949
1600561, 0.017578, 0.951416, -0.434570, 1.037598, -44.311539, 26.855476
1600581, -0.033569, 0.952759, -0.443481, -1.281738, -34.057617, 12.756351
1600601, -0.073853, 0.956665, -0.437012, -3.662110, -24.230965, 4.516602
1600621, -0.076172, 0.938477, -0.504028, -15.258793, -11.901859, -1.159668
1600641, -0.085205, 0.949707, -0.359375, -25.329597, 6.896975, 4.638672
1600661, -0.015869, 0.969849, -0.272217, -30.029305, 9.399414, 14.404301
1600681, -0.050781, 0.996582, -0.136230, -26.672371, 24.047859, 25.451668
1600701, -0.037109, 1.010376, -0.018433, -12.329105, 36.254883, 42.236328
1600721, 0.041992, 1.004150, 0.083862, 31.921394, 49.255386, 67.993164
1600741, 0.157227, 0.971313, -0.076294, 56.884781, 58.776871, 79.223633
1600761, 0.463867, 0.952881, -0.498779, 48.400894, 45.288101, 55.236832
1600781, 0.668945, 0.963623, -0.591553, 8.422852, 22.460945, 4.638672
1600801, 0.559326, 1.009155, -0.351440, -16.113281, -19.592285, -41.015625
1600821, 0.345215, 0.942383, -0.251953, -24.658211, -41.381836, -68.542480
1600841, 0.029663, 0.977173, -0.140015, -18.554688, -31.311043, -66.223145
1600861, -0.084229, 0.981812, -0.158325, -11.718754, -12.207035, -48.645035
1600881, -0.079346, 0.984985, -0.174683, -5.737307, 20.751953, -29.846199
1600901, 0.100098, 0.953613, -0.221802, -2.380371, 30.944832, -16.845703
1600921, 0.211914, 0.926880, -0.275879, 6.774904, 28.503426, -5.187988
1600941, 0.288574, 0.844604, -0.371216, 10.253906, 36.743164, -1.281738
1600961, 0.360107, 0.834351, -0.501831, 6.774904, 48.889175, 2.014160
1600981, 0.505249, 0.800293, -0.516235, 0.732422, 39.855957, 11.840824
1601001, 0.617554, 0.768921, -0.509766, -3.845216, 15.563969, 14.709476
1601021, 0.621826, 0.801758, -0.459839, -6.225588, 0.244141, 12.695316
1601041, 0.611450, 0.829346, -0.394531, -3.967286, -9.582520, 5.371094
1601061, 0.547607, 0.858276, -0.381592, 0.427246, -13.793949, -2.624512
1601081, 0.530518, 0.888794, -0.478149, -8.789063, -17.883301, -22.644051
1601101, 0.267700, 0.956421, -0.252075, -20.202637, -31.311043, -36.560059
1601121, 0.146851, 1.022949, -0.075806, -3.356935, -37.658691, -29.968269
1601141, -0.051392, 1.054688, 0.056030, 40.893555, -39.123535, -8.300781
1601161, -0.103516, 0.975464, -0.255981, 65.979004, -15.686039, 12.207035
1601181, 0.048950, 0.876465, -0.582642, 50.964371, 19.958496, 13.000492
1601201, 0.158936, 0.831421, -0.605713, 27.465828, 31.799324, -5.859377
1601221, 0.108887, 0.829102, -0.562012, 14.892582, 24.902351, -22.094727
1601241, 0.063232, 0.795288, -0.517090, 6.958010, 24.230965, -28.015144
1601261, 0.048706, 0.780396, -0.460327, -1.586915, 35.156250, -21.911621
1601281, 0.038940, 0.902710, -0.396240, -10.986328, 53.710953, -2.136230
1601301, 0.270020, 0.932373, -0.255371, -17.761230, 72.753906, 28.076180
1601321, 0.446777, 0.890625, -0.245239, -28.808601, 70.007324, 36.132813
1601341, 0.663940, 0.952881, -0.165283, -33.081055, 29.663094, 29.296883
1601361, 0.671143, 1.016113, -0.021118, -13.977055, -17.211914, 4.516602
1601381, 0.503784, 0.999512, -0.064331, 9.948730, -46.081558, -16.052246
1601401, 0.283325, 0.944336, -0.242188, 23.071297, -34.973145, -28.259285
1601421, 0.146973, 0.902344, -0.387939, 21.972656, -26.489265, -26.000984
1601441, 0.103638, 0.894775, -0.432251, 14.099125, -18.615723, -17.333984
1601461, 0.108154, 0.895142, -0.434937, 6.286623, -7.080080, -9.582520
1601481, 0.160767, 0.907593, -0.411621, -3.906251, 5.065918, -1.159668
1601501, 0.197144, 0.908936, -0.385620, -8.911133, 6.713869, 2.014160
1601521, 0.228271, 0.925659, -0.328491, -10.681152, 4.272461, 3.479005
1601541, 0.274292, 0.937744, -0.290405, -8.239746, 1.525879, 1.892090
1601561, 0.303467, 0.936279, -0.283691, -4.394531, -3.967286, -2.685547
1601581, 0.281128, 0.936035, -0.292114, -1.159668, -8.728027, -7.507326
1601601, 0.209717, 0.942017, -0.301147, 1.281738, -11.169437, -9.216309
1601621, 0.128906, 0.945068, -0.276489, 4.516602, -6.103518, -4.882813
1601641, 0.156128, 0.952637, -0.245605, 10.986328, -3.295899, 1.464844
1601661, 0.239624, 0.941895, -0.275635, 17.578125, -4.028320, 2.746582
1601681, 0.277222, 0.939087, -0.344360, 20.996094, -8.422852, -3.723145
1601701, 0.230713, 0.901367, -0.360596, 20.690918, -14.404301, -5.432129
1601721, 0.198120, 0.871460, -0.454468, 10.986328, -6.225588, -2.380371
1601741, 0.186890, 0.890747, -0.431152, 1.647950, -2.685547, -1.220703
1601761, 0.164551, 0.924194, -0.396851, -0.610352, -3.540040, -0.183106
1601781, 0.155884, 0.930664, -0.368042, 0.183106, -1.953125, 3.112794
1601801, 0.172363, 0.922485, -0.329590, 3.356935, 1.159668, 5.798342
1601821, 0.226074, 0.912231, -0.321533, 5.615236, 4.882813, 7.873537
1601841, 0.291870, 0.910645, -0.340698, 5.615236, 4.394531, 6.896975
1601861, 0.310303, 0.902832, -0.410034, 1.647950, -9.643555, 1.708985
1601881, 0.264160, 0.908081, -0.413330, -2.563477, -15.441898, -3.906251
1601901, 0.207031, 0.919312, -0.385132, -5.065918, -15.014652, -8.605957
1601921, 0.150879, 0.928467, -0.349609, -2.990724, -10.314941, -7.080080
1601941, 0.132080, 0.919556, -0.333618, 2.136230, -4.943848, -1.098633
1601961, 0.150024, 0.892578, -0.362915, 4.333496, 0.671387, 5.249023
1601981, 0.209473, 0.892822, -0.396973, 2.563477, 2.868653, 6.896975
1602001, 0.249023, 0.907593, -0.408325, -0.610352, -0.244141, 2.502441
1602021, 0.246704, 0.935547, -0.400269, -3.906251, -3.601075, -2.685547
1602041, 0.209351, 0.922485, -0.375610, -5.493164, -5.554201, -2.807618
1602061, 0.188721, 0.916870, -0.324585, -0.915528, -7.141115, 4.089355
