timestamp,ax,ay,az,gx,gy,gz
1614981, 0.389893, 0.874756, -0.387207, 5.310059, 11.474613, 9.704590
1615001, 0.449829, 0.869019, -0.368896, 1.892090, 4.394531, 2.685547
1615021, 0.427612, 0.902710, -0.340454, 0.366211, -3.295899, -5.126953
1615041, 0.378662, 0.894165, -0.308105, 2.624512, -8.728027, -10.253906
1615061, 0.356934, 0.894409, -0.324097, 4.150391, -10.437012, -13.732914
1615081, 0.309326, 0.901245, -0.323608, 6.225588, -12.756351, -14.343266
1615101, 0.286743, 0.883057, -0.376343, 5.615236, -13.488773, -13.488773
1615121, 0.248047, 0.891479, -0.366821, 3.601075, -12.695316, -10.314941
1615141, 0.245361, 0.887207, -0.393555, -0.366211, -9.765625, -3.479005
1615161, 0.230103, 0.897583, -0.358154, -2.014160, -5.004883, 0.366211
1615181, 0.252075, 0.903687, -0.325928, -0.427246, -0.549316, 3.540040
1615201, 0.277344, 0.900879, -0.337891, 1.708985, 2.136230, 5.798342
1615221, 0.319458, 0.894043, -0.353516, 2.075195, 0.732422, 5.554201
1615241, 0.334961, 0.895264, -0.351563, 2.075195, -2.624512, 3.723145
1615261, 0.313721, 0.896973, -0.341919, 2.990724, -3.967286, 1.831055
1615281, 0.292725, 0.893066, -0.356323, 3.784181, -1.342773, 1.342773
1615301, 0.296997, 0.887573, -0.377197, 2.868653, -0.671387, 1.708985
1615321, 0.296753, 0.885986, -0.373901, 0.244141, -1.464844, 2.258301
1615341, 0.292603, 0.890869, -0.363037, -0.366211, -1.770020, 3.112794
1615361, 0.304688, 0.891235, -0.360474, -0.549316, -1.342773, 3.356935
1615381, 0.325562, 0.892456, -0.350708, -0.061035, -1.159668, 2.258301
1615401, 0.330933, 0.889038, -0.363525, -0.061035, -1.159668, 0.305176
1615421, 0.326904, 0.890869, -0.357544, -0.244141, -3.112794, -1.647950
1615461, 0.265503, 0.898315, -0.333740, 1.342773, -1.037598, 0.122070
1615481, 0.296509, 0.895630, -0.345337, 3.479005, 1.525879, 1.403809
1615501, 0.324219, 0.891846, -0.364014, 3.479005, 0.915528, 0.671387
1615521, 0.304199, 0.891602, -0.360474, 3.601075, 0.488281, -0.305176
1615581, 0.293213, 0.895264, -0.341309, 6.774904, 5.371094, 1.586915
1615601, 0.324219, 0.896118, -0.339355, 8.911133, 6.713869, 1.159668
1615621, 0.353027, 0.895142, -0.342651, 11.474613, 5.798342, -1.647950
1615641, 0.335938, 0.894775, -0.348633, 13.732914, 0.732422, -3.845216
1615661, 0.304321, 0.894531, -0.321777, 17.700195, -4.455566, -2.868653
1615681, 0.251343, 0.916504, -0.322266, 28.198250, -4.516602, -0.488281
1615701, 0.297729, 0.943726, -0.468140, 28.320320, 11.474613, 0.244141
1615721, 0.375732, 0.909058, -0.460693, 26.000984, 10.009766, -1.953125
1615741, 0.398926, 0.881592, -0.479370, 27.404793, 0.061035, -6.713869
1615761, 0.347290, 0.881348, -0.538452, 27.221687, -9.887695, -10.498047
1615781, 0.261841, 0.855469, -0.567993, 27.038582, -14.709476, -8.117676
1615801, 0.192627, 0.812866, -0.605591, 26.062019, -15.625004, -4.760742
1615821, 0.144287, 0.775391, -0.645264, 22.705086, -3.723145, -9.460449
1615841, 0.105469, 0.746704, -0.651733, 17.150879, 17.272949, -13.977055
1615901, 0.185547, 0.729614, -0.541382, 5.249023, 64.880371, -0.854492
1615881, 0.124146, 0.721313, -0.558960, 7.385256, 49.072281, -7.263186
1615921, 0.258301, 0.780396, -0.521729, 10.864258, 89.843781, 2.319336
1615941, 0.381226, 0.827271, -0.459717, 22.094727, 104.003937, -0.122070
1615961, 0.483032, 0.802612, -0.417114, 32.043457, 99.914581, -9.277344
1615981, 0.582031, 0.711182, -0.416382, 31.250008, 80.322266, -21.118164
1616001, 0.589600, 0.665039, -0.479248, 11.474613, 51.025406, -32.531738
1616021, 0.528809, 0.684570, -0.479858, -17.028809, 16.967773, -31.616219
1616041, 0.452393, 0.807495, -0.358643, -38.391113, -13.793949, -20.629883
1616061, 0.441772, 0.882690, -0.220337, -52.429214, -42.236328, -6.225588
1616081, 0.402344, 0.998047, -0.111206, -57.617203, -72.998047, 11.291508
1616101, 0.394165, 1.059692, -0.142334, -49.865738, -87.280273, 7.263186
1616121, 0.376099, 1.033936, -0.166016, -37.170410, -91.308624, -9.155273
1616141, 0.312744, 1.069580, -0.168213, -24.169930, -83.740234, -25.329597
1616161, 0.247314, 1.037476, -0.179321, -11.657719, -70.129395, -30.151375
1616181, 0.083740, 0.967896, -0.171509, 5.249023, -59.692398, -24.902351
1616201, -0.089600, 0.912476, -0.365356, 11.779789, -37.719727, -5.554201
1616221, 0.089478, 0.864258, -0.488403, 0.427246, -3.784181, 13.000492
1616241, 0.255737, 0.865479, -0.479004, -2.258301, 1.647950, 16.418457
1616261, 0.313843, 0.863892, -0.554810, -7.995607, -4.455566, 12.512211
1616281, 0.317505, 0.841187, -0.499390, -25.451668, -10.742188, 3.784181
1616301, 0.266235, 0.877563, -0.339966, -18.371582, -15.319828, 6.652834
1616321, 0.240601, 0.893433, -0.323364, -4.211426, -10.925293, 11.657719
1616341, 0.234985, 0.879395, -0.351563, 11.047363, -6.286623, 15.502934
1616361, 0.230835, 0.866455, -0.491333, 11.962894, 4.089355, 15.930180
1616381, 0.243530, 0.882446, -0.508057, 5.493164, 13.793949, 9.582520
1616401, 0.196167, 0.912720, -0.404907, 4.150391, 18.188477, 2.746582
1616421, 0.131714, 0.916016, -0.364502, 8.789063, 18.737793, 3.662110
1616441, 0.126709, 0.911743, -0.416870, 10.131836, 26.916512, 6.469728
1616461, 0.085083, 0.946533, -0.298096, 17.883301, 29.846199, 5.065918
1616481, 0.116821, 0.959595, -0.311157, 19.714355, 37.292480, 10.986328
1616501, 0.161011, 0.984131, -0.278442, 23.132332, 42.236328, 10.681152
1616521, 0.202148, 0.975830, -0.229736, 30.151375, 52.307144, 8.422852
1616541, 0.283081, 0.973755, -0.219971, 36.804199, 57.250992, 4.272461
1616561, 0.389160, 0.940186, -0.249512, 37.048340, 61.523453, -1.586915
1616581, 0.489136, 0.936523, -0.247314, 37.231445, 50.903336, -10.192871
1616601, 0.491699, 0.927612, -0.315796, 35.705566, 36.437988, -27.954109
1616622, 0.472168, 0.920654, -0.313110, 31.005867, 32.592773, -44.128418
1616642, 0.483398, 0.878418, -0.356934, 25.146492, 28.808601, -57.006851
1616662, 0.482544, 0.823364, -0.435547, 14.099125, 25.024422, -67.016602
1616682, 0.405762, 0.844360, -0.378296, 5.187988, 16.906738, -60.302750
1616702, 0.467041, 0.825317, -0.323975, 9.765625, 3.417970, -45.715347
1616722, 0.527344, 0.790649, -0.469482, 2.380371, -5.004883, -41.931152
1616742, 0.564697, 0.797974, -0.482910, -8.972168, -22.644051, -39.611816
1616762, 0.621582, 0.756592, -0.560425, -25.695808, -36.926270, -38.879395
1616782, 0.518066, 0.746460, -0.534912, -41.687012, -54.260269, -34.179688
1616802, 0.408691, 0.762207, -0.436157, -49.926773, -64.636230, -9.521484
1616822, 0.235718, 0.869507, -0.340454, -26.794441, -71.472168, 23.559578
1616842, 0.118896, 0.888062, -0.388916, -14.343266, -59.509293, 41.564941
1616862, 0.067749, 0.914063, -0.415771, -5.249023, -44.555679, 39.001465
1616882, 0.045898, 0.916260, -0.511719, -4.028320, -37.475586, 28.442390
1616902, 0.026489, 0.926025, -0.536865, -10.192871, -35.522461, 19.165039
1616922, -0.057251, 0.927856, -0.495117, -13.732914, -30.822762, 9.582520
1616942, -0.073608, 0.954956, -0.423096, -14.526371, -20.935059, 3.845216
1616962, -0.052612, 0.970337, -0.396851, -13.793949, -12.939457, -5.737307
1616982, -0.056274, 0.951904, -0.382202, -17.517090, -2.014160, -11.474613
1617002, -0.078613, 0.977173, -0.209106, -13.183598, 8.544922, 2.136230
1617022, 0.029907, 0.971558, -0.170044, 10.559082, 25.329597, 24.230965
1617042, 0.079956, 0.949463, -0.202148, 26.184090, 39.794922, 32.714844
1617062, 0.117554, 0.916016, -0.287964, 36.254883, 46.081558, 41.198730
1617082, 0.181152, 0.914551, -0.407349, 36.804199, 49.621597, 46.630875
1617102, 0.371216, 0.906616, -0.608887, 12.878422, 43.762207, 28.076180
1617122, 0.401001, 0.968994, -0.466431, -10.742188, 16.296387, -0.427246
1617142, 0.236450, 1.030151, -0.326294, -16.967773, -4.882813, -25.390633
1617162, 0.062012, 1.039429, -0.275635, -20.080566, 1.159668, -48.767105
1617182, -0.120850, 1.065918, -0.183472, -15.869144, 26.062019, -65.551758
1617202, 0.025757, 1.003540, -0.156982, -6.774904, 32.897949, -64.086914
1617222, 0.091919, 0.987549, -0.151855, -1.708985, 32.714844, -53.649918
1617242, 0.208130, 0.875977, -0.199097, 5.004883, 23.376472, -43.395996
1617262, 0.277710, 0.926392, -0.347656, 9.094238, 27.771004, -32.226563
1617282, 0.371948, 0.799438, -0.366821, 15.625004, 23.010262, -12.268070
1617302, 0.442383, 0.810547, -0.455200, 28.808601, 14.587406, 14.099125
1617322, 0.500610, 0.739380, -0.694458, 20.751953, 11.779789, 18.249512
1617342, 0.489136, 0.770020, -0.598755, 8.117676, 7.080080, 20.690918
1617362, 0.515015, 0.790405, -0.545532, 10.925293, -0.976563, 20.751953
1617382, 0.580688, 0.807007, -0.631226, 7.507326, -14.404301, 9.094238
1617402, 0.516602, 0.833374, -0.628296, -33.081055, -39.489746, -31.005867
1617422, 0.272949, 0.898560, -0.378296, -41.870117, -59.326187, -42.602539
1617442, 0.081299, 0.940796, -0.248169, -37.536621, -64.025879, -39.733887
1617462, -0.055420, 0.972412, -0.184326, -25.939949, -52.124039, -29.663094
1617482, -0.114624, 0.979858, -0.185913, -12.695316, -28.137215, -16.845703
1617502, -0.113159, 0.976807, -0.209106, -0.610352, -8.239746, -2.014160
1617522, -0.069580, 0.969849, -0.234131, 9.338379, 7.080080, 11.657719
1617542, 0.049194, 0.952393, -0.280518, 16.906738, 14.282230, 21.118164
1617562, 0.166382, 0.937256, -0.330444, 20.446777, 11.474613, 22.338875
1617582, 0.197510, 0.923584, -0.369507, 20.690918, 2.258301, 17.211914
1617602, 0.157837, 0.919678, -0.387939, 20.385742, 1.892090, 15.014652
1617622, 0.133911, 0.905518, -0.425537, 17.456055, 3.662110, 15.747074
1617642, 0.150024, 0.900024, -0.435181, 12.939457, 4.516602, 17.333984
1617662, 0.149292, 0.898926, -0.434814, 8.972168, 7.446291, 17.822266
1617682, 0.153320, 0.901855, -0.418213, 5.493164, 11.535648, 19.042969
1617702, 0.196533, 0.909668, -0.398315, 4.272461, 14.404301, 19.104004
1617722, 0.249390, 0.901733, -0.415771, 2.990724, 11.474613, 16.967773
1617742, 0.289185, 0.894897, -0.430786, -0.122070, 2.929688, 12.512211
1617762, 0.279785, 0.896484, -0.424561, -3.906251, -1.464844, 6.530764
1617782, 0.213623, 0.908325, -0.389038, -5.126953, 0.244141, 1.586915
1617802, 0.236084, 0.903442, -0.406372, -6.042482, -0.976563, 0.366211
1617822, 0.233765, 0.906250, -0.396484, -8.117676, -3.234864, -1.831055
1617842, 0.225098, 0.911743, -0.372925, -7.995607, -6.530764, -2.685547
1617862, 0.207520, 0.920166, -0.357910, -7.324221, -9.460449, -3.295899
1617882, 0.159424, 0.929810, -0.317017, -3.662110, -7.995607, -2.014160
1617902, 0.146606, 0.934204, -0.314087, 2.014160, -2.319336, 1.586915
1617922, 0.183105, 0.913696, -0.364868, 4.882813, 0.549316, 3.540040
