timestamp,ax,ay,az,gx,gy,gz
1633762, 0.334473, 0.899048, -0.308838, 2.014160, -0.793457, -0.610352
1633782, 0.323730, 0.897827, -0.334351, 2.014160, -3.173829, 0.244141
1633802, 0.314575, 0.885498, -0.353149, 0.366211, -3.417970, 1.098633
1633822, 0.308105, 0.887695, -0.347656, -2.014160, -1.220703, 1.892090
1633842, 0.313965, 0.895020, -0.317261, -2.563477, 0.671387, 2.868653
1633862, 0.333862, 0.900635, -0.314697, -1.647950, 1.342773, 3.356935
1633882, 0.340210, 0.895630, -0.314697, -0.915528, -0.305176, 2.807618
1633902, 0.345459, 0.894775, -0.318970, -0.244141, -2.502441, 2.319336
1633922, 0.330566, 0.890015, -0.333618, -0.488281, -5.065918, 2.075195
1633942, 0.320313, 0.891724, -0.327271, -1.281738, -5.615236, 3.417970
1633962, 0.326782, 0.892334, -0.326294, -1.831055, -4.394531, 3.845216
1633982, 0.325195, 0.898071, -0.305542, -0.915528, -4.577637, 4.638672
1634002, 0.342041, 0.892700, -0.321289, -0.122070, -5.249023, 5.065918
1634022, 0.350708, 0.888062, -0.338867, -0.915528, -5.004883, 3.906251
1634042, 0.348389, 0.888184, -0.336792, -2.380371, -6.530764, 3.356935
1634062, 0.335327, 0.887817, -0.336426, -3.417970, -8.300781, 3.051759
1634082, 0.302979, 0.894775, -0.315308, -3.845216, -6.164553, 7.324221
1634102, 0.336914, 0.893799, -0.310059, -3.051759, -3.662110, 7.995607
1634122, 0.349854, 0.899048, -0.290405, -1.098633, -2.685547, 7.568361
1634142, 0.340698, 0.900269, -0.290771, 1.525879, -3.234864, 7.263186
1634162, 0.315796, 0.907837, -0.277344, 5.004883, 4.760742, 7.202150
1634182, 0.255737, 0.918945, -0.275635, 9.521484, 22.277840, 9.033203
1634202, 0.214844, 0.953979, -0.225464, 16.540527, 54.382339, 13.671879
1634222, 0.426270, 1.015259, -0.163208, 38.940430, 53.833023, 8.789063
1634242, 0.538818, 1.161987, -0.270020, 82.458496, 35.217285, -0.183106
1634262, 0.647095, 1.181519, -0.534790, 116.516144, 9.643555, 1.037598
1634282, 0.533691, 0.736816, -0.986694, 114.379913, -13.244633, -19.226074
1634322, 0.061035, 0.331421, -1.084351, 2.380371, -20.935059, -7.202150
1634342, 0.123901, 0.439819, -0.614990, -30.578621, 4.455566, 39.062500
1634362, 0.327881, 0.507690, -0.257202, -19.653320, 38.085938, 65.551758
1634382, 0.497925, 0.498169, -0.181763, -4.089355, 67.199707, 64.514160
1634402, 0.683838, 0.462402, -0.230103, -3.540040, 76.049805, 39.672852
1634422, 0.739868, 0.591797, -0.288818, -16.967773, 43.823242, 4.699707
1634442, 0.512085, 0.817871, -0.248535, -28.381355, -15.014652, -13.427738
1634462, 0.301147, 0.828369, -0.104004, -38.146973, -67.382813, 1.586915
1634482, 0.348877, 0.847290, -0.067017, -36.621094, -43.884277, -1.342773
1634502, 0.321777, 0.893921, -0.133911, -35.522461, -13.610844, -16.174316
1634522, 0.252563, 0.966797, -0.266724, -44.128418, 7.507326, -16.723633
1634542, 0.313965, 1.173706, -0.250000, -46.691910, 20.629883, 5.432129
1634562, 0.439697, 1.357788, -0.229248, -25.451668, 19.226074, 24.353035
1634582, 0.586792, 1.095825, -0.289307, 0.793457, 0.000000, 22.705086
1634602, 0.590942, 0.787476, -0.506836, -1.770020, -10.314941, 4.028320
1634622, 0.430420, 0.794556, -0.439087, -17.822266, -21.606445, -2.807618
1634642, 0.292114, 0.848999, -0.260376, -15.625004, -28.198250, 6.347658
1634662, 0.344849, 0.861450, -0.330200, -9.643555, -4.211426, 18.981934
1634682, 0.443359, 0.850098, -0.317871, -7.324221, 3.295899, 21.362305
1634702, 0.518188, 0.826660, -0.366333, -7.873537, 3.784181, 18.432617
1634722, 0.545898, 0.839600, -0.353760, -10.864258, 4.028320, 11.657719
1634742, 0.548340, 0.841553, -0.290649, -9.826660, 1.220703, 5.065918
1634762, 0.553345, 0.837402, -0.284668, -6.225588, -0.793457, -1.525879
1634782, 0.570435, 0.833740, -0.311523, -4.638672, -6.164553, -9.338379
1634802, 0.509766, 0.833008, -0.322998, -4.760742, -15.014652, -14.587406
1634822, 0.471680, 0.831299, -0.347656, -6.042482, -20.751953, -15.686039
1634842, 0.418579, 0.825073, -0.381470, -11.901859, -16.174316, -16.845703
1634862, 0.421021, 0.822510, -0.414307, -18.127441, -12.695316, -15.808109
1634882, 0.393799, 0.844971, -0.333496, -19.470215, -17.028809, -14.038090
1634902, 0.285400, 0.878784, -0.270874, -7.141115, -17.883301, -6.530764
1634922, 0.238647, 0.872314, -0.294556, 3.234864, -0.976563, 2.136230
1634943, 0.226929, 0.877930, -0.324951, 9.704590, 16.052246, 10.559082
1634963, 0.260132, 0.885620, -0.318970, 17.028809, 33.569336, 16.662598
1634983, 0.319458, 0.895020, -0.323364, 20.507813, 43.640137, 18.005371
1635003, 0.367188, 0.913208, -0.271973, 29.296883, 43.395996, 14.465336
1635023, 0.345703, 0.875610, -0.346313, 32.897949, 53.527847, 9.460449
1635043, 0.384155, 0.926147, -0.298096, 31.188972, 63.171402, 4.272461
1635063, 0.380005, 0.932373, -0.214966, 35.766602, 69.458008, -2.624512
1635083, 0.400757, 0.902710, -0.223022, 35.278320, 76.049805, -2.563477
1635103, 0.507935, 0.917358, -0.154053, 38.391113, 69.580078, -5.981447
1635123, 0.588257, 0.925049, -0.167480, 39.978027, 56.213394, -14.038090
1635143, 0.674561, 0.895630, -0.171875, 40.161133, 46.386734, -30.212410
1635163, 0.742798, 0.857056, -0.180908, 38.818359, 27.648933, -49.499527
1635183, 0.697632, 0.830200, -0.219360, 36.071777, 1.892090, -63.354507
1635203, 0.555664, 0.849609, -0.271118, 27.221687, -6.896975, -75.561523
1635223, 0.542725, 0.786621, -0.314331, 19.836426, 4.455566, -80.383301
1635243, 0.593262, 0.747437, -0.314941, 14.221195, 0.671387, -77.453613
1635263, 0.630615, 0.738159, -0.357788, 7.751467, -23.254402, -70.678711
1635283, 0.655518, 0.756592, -0.421631, -2.258301, -50.170914, -70.068359
1635303, 0.671265, 0.740356, -0.450317, -18.920898, -64.636230, -75.927734
1635323, 0.625977, 0.720703, -0.407837, -32.531738, -78.125000, -74.401855
1635343, 0.499756, 0.734863, -0.414429, -43.823242, -85.998535, -59.570328
1635363, 0.317261, 0.794312, -0.372192, -47.363297, -85.205078, -33.813477
1635383, 0.092041, 0.858032, -0.283447, -40.039063, -49.377457, 18.981934
1635403, 0.040527, 0.926514, -0.257568, -7.507326, -50.292984, 37.841797
1635423, 0.046997, 0.927856, -0.421997, 2.441406, -36.621094, 41.625977
1635443, 0.122192, 0.938110, -0.503174, 0.061035, -35.644531, 31.005867
1635463, 0.096191, 0.919189, -0.565796, -7.751467, -40.405273, 13.122562
1635483, -0.004395, 0.931641, -0.466309, -17.333984, -39.978027, 8.666992
1635503, -0.047974, 0.951538, -0.359741, -16.723633, -31.799324, 12.512211
1635523, -0.108521, 0.970947, -0.301636, -11.352543, -22.216805, 21.301270
1635543, -0.091553, 0.986450, -0.288452, -6.652834, -10.620117, 27.709969
1635563, -0.036377, 0.973145, -0.314209, -8.911133, 4.028320, 31.494148
1635583, 0.129028, 0.970459, -0.199707, -7.385256, 17.639160, 38.696289
1635603, 0.223999, 0.951660, -0.170410, 0.610352, 14.892582, 43.945313
1635623, 0.248901, 0.943726, -0.148193, 15.258793, 7.263186, 48.339859
1635643, 0.231079, 0.925049, -0.189087, 27.954109, 7.385256, 52.429214
1635663, 0.200806, 0.893555, -0.257080, 37.353516, 16.479492, 59.265152
1635683, 0.225220, 0.864502, -0.335571, 40.161133, 24.719246, 67.871094
1635703, 0.406860, 0.880371, -0.603638, 17.761230, 31.616219, 59.997574
1635723, 0.552612, 0.900391, -0.526855, -15.625004, 24.108894, 33.813477
1635743, 0.484619, 0.958496, -0.327026, -27.465828, -3.356935, 11.962894
1635763, 0.381226, 0.976685, -0.224854, -28.991707, -23.986824, -7.141115
1635783, 0.244385, 1.004517, -0.147095, -17.822266, -12.634281, -12.390141
1635803, 0.248169, 1.005371, -0.190552, -16.052246, -1.220703, -21.606445
1635823, 0.220703, 0.966431, -0.138550, -10.253906, 10.437012, -21.972656
1635843, 0.292358, 0.944092, -0.154053, -2.746582, 17.028809, -19.470215
1635863, 0.370972, 0.878418, -0.210327, 6.103518, 26.062019, -17.028809
1635883, 0.419922, 0.829224, -0.299438, 15.136723, 19.714355, -7.629396
1635903, 0.546997, 0.765015, -0.429199, 15.136723, 20.019531, -5.615236
1635923, 0.667603, 0.760010, -0.526123, 3.784181, 26.123055, -15.686039
1635943, 0.712524, 0.753540, -0.443848, -1.464844, 13.122562, -25.573738
1635963, 0.546509, 0.729858, -0.426636, 5.676271, -15.319828, -21.728516
1635983, 0.470093, 0.744263, -0.511597, 5.310059, -21.118164, -10.986328
1636003, 0.424072, 0.763062, -0.552246, -0.549316, -10.253906, -6.225588
1636023, 0.469971, 0.807495, -0.604248, -17.456055, -2.319336, -10.559082
1636043, 0.523560, 0.833740, -0.515991, -40.161133, -2.929688, -25.268562
1636063, 0.431152, 0.881104, -0.313843, -49.377457, -13.793949, -36.437988
1636083, 0.290527, 0.926392, -0.181885, -45.227066, -19.836426, -38.085938
1636103, 0.212524, 0.952759, -0.118896, -34.484863, -14.831547, -33.996582
1636123, 0.180664, 0.967163, -0.097778, -21.484375, -8.544922, -27.893074
1636143, 0.155273, 0.980347, -0.115112, -0.488281, -4.943848, -14.465336
1636163, 0.179199, 0.959839, -0.174194, 9.460449, -4.211426, -6.591799
1636183, 0.192383, 0.943604, -0.236206, 12.939457, -3.234864, -0.183106
1636203, 0.222046, 0.933472, -0.268677, 13.427738, -2.441406, 4.150391
1636223, 0.232788, 0.925415, -0.298706, 11.596684, -0.488281, 6.469728
1636243, 0.229004, 0.925415, -0.297852, 8.911133, 0.671387, 9.277344
1636263, 0.254395, 0.920044, -0.308105, 6.530764, 2.441406, 11.535648
1636283, 0.296021, 0.921509, -0.303467, 3.540040, 2.563477, 11.230473
1636303, 0.320679, 0.920532, -0.287598, 1.770020, 1.342773, 8.483887
1636323, 0.331299, 0.929321, -0.264648, 2.136230, -0.671387, 5.065918
1636343, 0.326904, 0.915039, -0.303711, 0.366211, -2.075195, -1.342773
1636363, 0.284424, 0.923828, -0.286133, -1.159668, -3.234864, -2.746582
1636383, 0.274658, 0.920044, -0.303345, -2.441406, -1.770020, -2.563477
1636403, 0.269043, 0.920898, -0.293945, -5.004883, 0.366211, -2.380371
1636423, 0.275635, 0.931274, -0.263916, -5.065918, 1.098633, -1.831055
1636443, 0.289429, 0.927002, -0.269165, -4.394531, 1.220703, -2.258301
1636463, 0.280029, 0.929321, -0.267578, -4.577637, 1.281738, -2.990724
1636483, 0.273560, 0.933716, -0.257202, -3.906251, 0.305176, -2.319336
1636503, 0.283691, 0.928345, -0.261719, -3.540040, -0.061035, -2.197266
1636523, 0.272095, 0.937988, -0.232056, -1.037598, -1.831055, -1.953125
1636543, 0.257202, 0.936157, -0.244995, 1.037598, -1.586915, -0.427246
1636563, 0.256714, 0.934570, -0.247437, 2.319336, -0.976563, 0.854492
1636583, 0.271240, 0.939697, -0.237549, 4.272461, -1.464844, 2.075195
1636603, 0.291748, 0.928955, -0.265869, 5.798342, -1.708985, 1.525879
1636623, 0.293335, 0.922729, -0.291748, 4.272461, -2.197266, 0.061035
1636643, 0.269531, 0.922974, -0.285767, 2.441406, -2.685547, -0.488281
1636663, 0.252686, 0.929443, -0.278931, 1.647950, -2.075195, 1.098633
1636683, 0.262817, 0.924438, -0.285034, 0.854492, 0.061035, 2.136230
1636703, 0.287354, 0.924927, -0.285645, -0.671387, 0.305176, 2.319336
1636723, 0.306763, 0.929932, -0.270752, -1.037598, -2.197266, -0.183106
1636743, 0.289795, 0.930786, -0.262573, -0.915528, -3.295899, -1.770020
1636763, 0.268799, 0.929810, -0.253662, 0.305176, -3.540040, -1.708985
