timestamp,ax,ay,az,gx,gy,gz
1018672, 0.306396, 0.921997, -0.255981, -0.793457, -2.502441, -2.075195
1018692, 0.310059, 0.922363, -0.253906, -0.732422, -1.220703, -2.136230
1018712, 0.318970, 0.923096, -0.250610, -0.122070, -0.915528, -2.746582
1018732, 0.317505, 0.921875, -0.256836, 0.244141, -2.807618, -3.295899
1018752, 0.307983, 0.918457, -0.266357, -0.305176, -2.685547, -3.417970
1018772, 0.297607, 0.923462, -0.260132, -0.732422, -1.831055, -3.356935
1018792, 0.295898, 0.922607, -0.257080, -0.793457, -1.525879, -2.563477
1018812, 0.303345, 0.921021, -0.265503, -1.098633, -1.403809, -2.197266
1018832, 0.301147, 0.924072, -0.258423, -1.770020, -1.464844, -2.258301
1018852, 0.288696, 0.928589, -0.240601, -1.159668, -2.990724, -1.220703
1018872, 0.283691, 0.929810, -0.241089, 0.305176, -1.464844, 0.244141
1018892, 0.314209, 0.922729, -0.259644, 1.098633, -0.793457, 0.244141
1018912, 0.314941, 0.922485, -0.263184, 0.488281, -2.868653, -0.488281
1018932, 0.295776, 0.925293, -0.257568, 0.183106, -3.845216, -0.549316
1018952, 0.290283, 0.923706, -0.257202, 0.244141, -2.197266, 0.122070
1018972, 0.308960, 0.923340, -0.262451, 0.000000, -2.502441, 0.366211
1018992, 0.305542, 0.921387, -0.265625, -0.671387, -3.112794, -0.244141
1019012, 0.293823, 0.926758, -0.251465, -0.915528, -2.868653, -0.122070
1019032, 0.287720, 0.929443, -0.241943, 0.122070, -0.366211, 0.427246
1019052, 0.301270, 0.925537, -0.249268, 1.220703, 0.915528, 0.732422
1019072, 0.314941, 0.922974, -0.259155, 1.464844, -0.427246, 0.610352
1019092, 0.311035, 0.921387, -0.260132, 1.159668, -2.014160, -0.122070
1019112, 0.293335, 0.925781, -0.255615, 1.220703, -1.403809, -0.122070
1019132, 0.291504, 0.923096, -0.259399, 1.403809, 0.305176, 0.671387
1019152, 0.302979, 0.922974, -0.260864, 1.098633, 1.159668, 0.854492
1019172, 0.308105, 0.923218, -0.260864, 0.915528, 1.159668, 0.793457
1019192, 0.311401, 0.922119, -0.260864, 0.671387, 0.549316, 0.488281
1019212, 0.315308, 0.922974, -0.256470, 0.671387, -0.366211, -0.061035
1019232, 0.305298, 0.923218, -0.255005, 0.854492, -0.366211, -0.610352
1019252, 0.305542, 0.922607, -0.259888, 1.098633, -0.366211, -0.427246
1019272, 0.301270, 0.920044, -0.264893, 0.061035, 0.244141, -0.671387
1019292, 0.304932, 0.924927, -0.258789, -0.122070, 0.061035, -0.427246
1019312, 0.294312, 0.923828, -0.255005, -0.061035, 0.427246, -0.183106
1019332, 0.297607, 0.925415, -0.249146, 0.427246, 0.793457, 0.549316
1019352, 0.303589, 0.923828, -0.251709, 1.098633, 0.915528, 0.732422
1019372, 0.306641, 0.922485, -0.259521, 1.281738, 0.366211, 0.671387
1019392, 0.302734, 0.923462, -0.254028, 1.281738, -0.122070, 0.854492
1019412, 0.293823, 0.925049, -0.245239, 2.136230, 0.427246, 1.403809
1019432, 0.298218, 0.925049, -0.253784, 3.112794, 1.831055, 2.258301
1019452, 0.311035, 0.919678, -0.264160, 2.868653, 2.990724, 2.136230
1019472, 0.322876, 0.918091, -0.268188, 2.441406, 1.953125, 1.708985
1019492, 0.325073, 0.916626, -0.275269, 1.342773, 0.732422, 0.793457
1019512, 0.315186, 0.919189, -0.264771, 0.549316, 0.061035, 0.122070
1019532, 0.310303, 0.920654, -0.262451, 0.427246, 0.549316, 0.122070
1019552, 0.319092, 0.916504, -0.260498, 0.305176, 0.305176, -0.244141
1019572, 0.320435, 0.922852, -0.263062, 0.183106, -0.244141, -0.671387
1019592, 0.310303, 0.920410, -0.256470, 0.183106, -0.488281, -1.037598
1019612, 0.306641, 0.921387, -0.255737, 0.671387, -0.183106, -0.732422
1019632, 0.308838, 0.920410, -0.258301, 0.976563, 0.122070, -0.488281
1019652, 0.304932, 0.920532, -0.259888, 1.037598, -0.610352, 0.000000
1019672, 0.310913, 0.917969, -0.267334, 0.854492, -0.854492, 0.549316
1019692, 0.319092, 0.916504, -0.271851, 0.000000, -1.647950, 0.061035
1019712, 0.309204, 0.920288, -0.263428, -0.549316, -1.770020, -0.122070
1019732, 0.307983, 0.920532, -0.262207, -0.427246, -0.793457, 0.122070
1019752, 0.316528, 0.919312, -0.263428, -0.671387, 0.000000, -0.244141
1019772, 0.317749, 0.917725, -0.267822, -1.037598, 0.000000, -0.732422
1019792, 0.323975, 0.917114, -0.265625, -1.708985, -1.220703, -1.281738
1019812, 0.326538, 0.916382, -0.275269, -2.563477, -2.502441, -2.380371
1019832, 0.317017, 0.918457, -0.269287, -4.699707, -3.356935, -3.295899
1019852, 0.319092, 0.919312, -0.268066, -5.737307, -3.967286, -4.089355
1019872, 0.307495, 0.922241, -0.259521, -6.713869, -4.272461, -4.943848
1019892, 0.298706, 0.925781, -0.248413, -6.713869, -4.760742, -4.150391
1019912, 0.309937, 0.926147, -0.244385, -6.286623, -4.394531, -4.516602
1019932, 0.306519, 0.929932, -0.235352, -5.676271, -4.699707, -5.432129
1019952, 0.290771, 0.932861, -0.226807, -4.272461, -3.967286, -5.249023
1019972, 0.284912, 0.931519, -0.227417, -2.685547, -3.234864, -4.760742
1019992, 0.276245, 0.933105, -0.232300, -1.525879, -2.075195, -3.417970
1020012, 0.286011, 0.931763, -0.245361, -0.976563, -2.441406, -2.502441
1020032, 0.274292, 0.930054, -0.245361, -1.647950, -0.854492, -0.793457
1020052, 0.276245, 0.934814, -0.235596, -1.281738, 1.281738, 0.305176
1020072, 0.293945, 0.929077, -0.239136, -0.549316, 2.868653, 0.610352
1020092, 0.304810, 0.935669, -0.230835, -0.793457, 0.061035, 0.549316
1020112, 0.296753, 0.938354, -0.213989, 1.464844, -0.671387, 0.061035
1020132, 0.288086, 0.932983, -0.231812, 2.807618, -1.281738, 0.366211
1020152, 0.287598, 0.928833, -0.244263, 3.051759, -0.976563, 0.854492
1020172, 0.283691, 0.930786, -0.248169, 2.807618, -0.488281, 1.770020
1020192, 0.296753, 0.928955, -0.249390, 2.258301, -0.427246, 2.014160
1020212, 0.295776, 0.926514, -0.253052, 1.586915, 0.854492, 2.014160
1020232, 0.296509, 0.923950, -0.258179, 0.610352, 1.586915, 2.075195
1020252, 0.316650, 0.924805, -0.255493, -0.305176, 1.037598, 1.342773
1020272, 0.314941, 0.924683, -0.251465, -1.281738, 0.305176, -0.122070
1020292, 0.311157, 0.930420, -0.236206, -1.159668, -0.549316, -1.098633
1020312, 0.301147, 0.929565, -0.240723, -0.732422, -0.488281, -1.892090
1020332, 0.292358, 0.930176, -0.241089, -0.549316, 0.061035, -1.586915
1020352, 0.300659, 0.929688, -0.240356, -0.427246, 0.122070, -1.525879
1020372, 0.298950, 0.927368, -0.248413, -0.610352, -0.427246, -1.892090
1020392, 0.280396, 0.928955, -0.247559, -1.403809, 0.122070, -1.281738
1020412, 0.293579, 0.934448, -0.223145, -0.305176, 1.647950, 0.000000
1020432, 0.306885, 0.935913, -0.221558, 1.159668, -0.061035, -0.183106
1020452, 0.280762, 0.933838, -0.230957, 2.319336, -0.244141, 0.122070
1020472, 0.271362, 0.931519, -0.237915, 2.868653, 1.831055, 1.770020
1020492, 0.293091, 0.931885, -0.232910, 3.295899, 3.601075, 2.685547
1020512, 0.313599, 0.931396, -0.232056, 4.333496, 3.417970, 2.319336
1020532, 0.326538, 0.926392, -0.242676, 4.882813, 1.342773, 0.793457
1020552, 0.311401, 0.924561, -0.257080, 4.211426, -0.732422, -0.305176
1020572, 0.294556, 0.923218, -0.258301, 3.173829, -0.122070, -0.427246
1020592, 0.314331, 0.923706, -0.260986, 1.586915, 1.159668, -0.732422
1020612, 0.316895, 0.924805, -0.254395, 0.610352, -0.549316, -1.953125
1020632, 0.301270, 0.928467, -0.244263, 0.610352, -1.770020, -2.319336
1020652, 0.291138, 0.928955, -0.240479, 1.037598, -2.075195, -2.014160
1020672, 0.281860, 0.928711, -0.237427, 1.953125, -1.281738, -0.976563
1020692, 0.289551, 0.930298, -0.247437, 2.624512, -0.549316, -0.061035
1020712, 0.293945, 0.925171, -0.253052, 2.319336, -0.366211, 0.488281
1020732, 0.296753, 0.927979, -0.251221, 2.258301, -0.793457, 0.671387
1020752, 0.287598, 0.926758, -0.253296, 2.197266, -0.427246, 1.220703
1020772, 0.288940, 0.926392, -0.254395, 2.014160, 0.671387, 2.136230
1020792, 0.304810, 0.922607, -0.251831, 1.892090, 0.183106, 2.624512
1020812, 0.307739, 0.925293, -0.254150, 1.892090, -0.793457, 2.319336
1020832, 0.305298, 0.925293, -0.253296, 1.770020, -0.976563, 2.197266
1020852, 0.307373, 0.923706, -0.251709, 2.075195, -0.854492, 1.953125
1020872, 0.309692, 0.922119, -0.262085, 1.831055, -0.732422, 1.586915
1020892, 0.313354, 0.919067, -0.268433, 0.854492, -1.342773, 1.098633
1020912, 0.312866, 0.919556, -0.267578, -0.366211, -1.342773, 0.427246
1020932, 0.313110, 0.923584, -0.260254, -1.037598, -2.014160, -0.122070
1020952, 0.306885, 0.922607, -0.267578, -3.051759, -0.610352, -1.525879
1020972, 0.287231, 0.937012, -0.212891, -0.488281, -3.601075, 0.122070
1020992, 0.286499, 0.925781, -0.246948, 1.403809, 0.183106, 1.098633
1021012, 0.306885, 0.921875, -0.264160, 0.244141, 1.586915, 1.464844
1021032, 0.318115, 0.920410, -0.258911, -0.488281, -0.366211, 1.098633
1021052, 0.323853, 0.923218, -0.251587, -0.549316, -2.075195, 0.427246
1021072, 0.300781, 0.930664, -0.245483, 0.976563, -2.136230, -0.061035
1021092, 0.284912, 0.913940, -0.266602, 0.976563, 1.281738, 1.037598
1021112, 0.306885, 0.926025, -0.269287, -0.244141, 2.441406, 1.708985
1021132, 0.321655, 0.917358, -0.257690, -1.342773, 0.915528, 1.342773
1021152, 0.330322, 0.921509, -0.250244, -1.647950, -1.403809, -0.488281
1021172, 0.310791, 0.922363, -0.248413, -1.281738, -2.136230, -1.281738
1021192, 0.301392, 0.925781, -0.245361, -0.915528, -2.075195, -1.037598
1021212, 0.296875, 0.922241, -0.256348, -0.976563, -0.122070, -0.549316
1021232, 0.315918, 0.922485, -0.254883, -1.586915, 1.281738, -0.610352
1021252, 0.338501, 0.923706, -0.251831, -1.892090, -0.061035, -2.197266
1021272, 0.334473, 0.921997, -0.254639, -2.563477, -1.953125, -4.394531
1021292, 0.325684, 0.925659, -0.245605, -2.868653, -3.112794, -6.042482
1021312, 0.313843, 0.926392, -0.240234, -2.441406, -3.601075, -7.263186
1021332, 0.320923, 0.928833, -0.239380, -1.953125, -5.126953, -8.239746
1021645, 0.292847, 0.932373, -0.234497, 3.906251, -0.122070, 3.906251
1021665, 0.299805, 0.929565, -0.239014, 5.004883, -0.366211, 3.967286
1021685, 0.311890, 0.922974, -0.261475, 4.577637, -1.098633, 3.051759
1021769, 0.310791, 0.921387, -0.265625, 2.380371, 0.976563, 3.479005
1021789, 0.317749, 0.921387, -0.260620, 1.159668, 0.427246, 2.136230
1021809, 0.313599, 0.925659, -0.244995, 1.586915, 0.061035, 1.586915
1021829, 0.311157, 0.922974, -0.247559, 2.319336, -0.610352, 1.464844
1021849, 0.308838, 0.925415, -0.243896, 3.051759, -1.464844, 1.525879
1021869, 0.300049, 0.924316, -0.244873, 4.150391, -3.051759, 2.502441
1021889, 0.295410, 0.921509, -0.253906, 4.882813, -1.647950, 3.112794
1021909, 0.273682, 0.922363, -0.261353, 5.249023, 2.136230, 5.249023
1021929, 0.286377, 0.915405, -0.267822, 5.310059, 5.065918, 7.385256
1021949, 0.320923, 0.911011, -0.277954, 4.333496, 7.202150, 7.995607
1021969, 0.353149, 0.909058, -0.288208, 1.831055, 6.958010, 4.760742
1021989, 0.382080, 0.906006, -0.292725, -0.671387, 3.662110, 1.342773
1022009, 0.380615, 0.908081, -0.281860, -3.173829, -1.037598, -2.563477
1022029, 0.345947, 0.916870, -0.261841, -4.028320, -4.577637, -5.004883
1022049, 0.323242, 0.919800, -0.244019, -3.173829, -4.882813, -5.798342
1022069, 0.295410, 0.920654, -0.245361, -1.892090, -4.150391, -4.577637
1022089, 0.294189, 0.923706, -0.247070, -0.671387, -2.807618, -2.929688
1022109, 0.279175, 0.920898, -0.264282, -0.488281, -1.770020, -0.488281
1022129, 0.276611, 0.920288, -0.258545, -0.854492, -1.281738, 2.929688
1022149, 0.281372, 0.918701, -0.255737, -0.488281, 1.342773, 5.676271
1022169, 0.310547, 0.923706, -0.239258, 0.915528, 2.563477, 8.239746
1022189, 0.323608, 0.919189, -0.247925, 1.953125, 3.784181, 8.911133
1022209, 0.355957, 0.916138, -0.245483, 2.868653, 2.624512, 7.873537
1022229, 0.366821, 0.926880, -0.230225, 4.394531, -3.662110, 6.408693
1022249, 0.370239, 0.918335, -0.225830, 7.263186, -7.019045, 4.882813
1022269, 0.387451, 0.916748, -0.247803, 9.399414, -13.061527, 2.258301
1022289, 0.362549, 0.907349, -0.247314, 11.230473, -17.822266, 1.953125
1022309, 0.300781, 0.899780, -0.238525, 13.854984, -16.845703, 8.728027
1022329, 0.301514, 0.902588, -0.264282, 14.282230, -9.216309, 15.258793
1022349, 0.378174, 0.906494, -0.327637, 10.375977, -4.699707, 13.366703
1022369, 0.381470, 0.918457, -0.348022, 6.042482, -10.437012, 9.521484
1022389, 0.368408, 0.908203, -0.324829, 3.417970, -14.404301, 7.080080
1022409, 0.414551, 0.878906, -0.293213, 1.586915, -15.258793, 2.563477
1022429, 0.431519, 0.833374, -0.301147, -0.305176, -17.944336, -4.028320
1022449, 0.392334, 0.818970, -0.310059, -3.173829, -23.498543, -7.507326
1022469, 0.320801, 0.835327, -0.317993, -5.493164, -23.132332, -8.850098
1022489, 0.264648, 0.867188, -0.330933, -7.690432, -15.563969, -6.103518
1022509, 0.254761, 0.920532, -0.350098, -10.009766, -2.258301, -3.906251
1022529, 0.326904, 0.989502, -0.355469, -9.033203, -5.187988, -5.432129
1022549, 0.270874, 0.876709, -0.346924, -12.390141, 0.671387, -8.056641
1022569, 0.312744, 0.900757, -0.309448, -15.869144, 4.455566, -6.835939
1022589, 0.358521, 0.924194, -0.249756, -14.709476, 6.347658, -8.239746
1022609, 0.354492, 0.918823, -0.257324, -12.084965, 1.892090, -10.253906
1022629, 0.355591, 0.924683, -0.261108, -11.230473, -5.798342, -11.596684
1022649, 0.341064, 0.927002, -0.248657, -9.643555, -10.192871, -13.549809
1022669, 0.315674, 0.929321, -0.244629, -7.690432, -11.047363, -14.770512
1022689, 0.266846, 0.926758, -0.261597, -6.164553, -6.958010, -15.075687
1022709, 0.308960, 0.933594, -0.232788, -4.699707, 1.647950, -14.892582
1022729, 0.239258, 0.930908, -0.262451, -4.333496, -2.563477, -10.131836
1022749, 0.191406, 0.923462, -0.287842, -5.065918, -0.793457, -5.432129
1022769, 0.211182, 0.928955, -0.272461, -7.141115, 5.310059, 1.098633
1022789, 0.278320, 0.935303, -0.240356, -6.652834, 8.544922, 3.417970
1022809, 0.345215, 0.934326, -0.222412, -4.760742, 4.943848, 1.525879
1022829, 0.353027, 0.937378, -0.221436, -2.258301, -4.638672, -2.319336
1022849, 0.295288, 0.938843, -0.219971, -0.183106, -8.789063, -4.455566
1022869, 0.249146, 0.943359, -0.219360, 2.685547, -8.300781, -2.990724
1022889, 0.236084, 0.939819, -0.226318, 5.493164, -4.577637, -0.610352
1022909, 0.230835, 0.934204, -0.247681, 7.019045, -0.061035, 2.624512
1022929, 0.255737, 0.923706, -0.285278, 5.920412, 2.502441, 7.385256
1022949, 0.277344, 0.913208, -0.306763, 2.746582, 3.967286, 8.422852
1022969, 0.293213, 0.914917, -0.297729, -1.281738, 4.943848, 8.972168
1022989, 0.335449, 0.916504, -0.285889, -3.662110, 5.249023, 6.896975
1023009, 0.358154, 0.916870, -0.285156, -6.286623, 1.525879, 2.990724
1023029, 0.351074, 0.922852, -0.263916, -8.178711, -1.770020, -1.403809
1023049, 0.323364, 0.927124, -0.245361, -8.056641, -6.042482, -3.662110
1023069, 0.294067, 0.932983, -0.236694, -7.446291, -6.530764, -4.272461
1023089, 0.288086, 0.934692, -0.233887, -6.225588, -4.455566, -4.272461
1023109, 0.296143, 0.937378, -0.220215, -3.967286, -4.577637, -4.638672
1023129, 0.279785, 0.940430, -0.208496, -1.525879, -7.385256, -4.272461
1023149, 0.234131, 0.947754, -0.192383, 2.014160, -5.065918, -1.831055
1023169, 0.237549, 0.949829, -0.182861, 7.568361, -2.197266, 2.197266
1023189, 0.255493, 0.936279, -0.220459, 11.230473, 1.464844, 4.577637
1023209, 0.270752, 0.933838, -0.231201, 13.061527, 4.455566, 5.920412
1023229, 0.294067, 0.926880, -0.257080, 13.977055, 6.530764, 6.286623
1023249, 0.303955, 0.917114, -0.284424, 12.451176, 8.605957, 5.065918
1023269, 0.306885, 0.916626, -0.279541, 10.070801, 12.939457, 3.723145
1023289, 0.336792, 0.913696, -0.282715, 5.981447, 14.709476, 2.441406
1023309, 0.336792, 0.931396, -0.254517, 5.126953, 4.211426, -2.502441
1023329, 0.303711, 0.905029, -0.311279, 1.159668, 3.601075, -4.150391
1023349, 0.299194, 0.909790, -0.298584, -5.004883, 3.540040, -2.502441
1023369, 0.299316, 0.927979, -0.242798, -4.516602, 2.319336, -2.075195
1023389, 0.303711, 0.927490, -0.262451, -0.366211, 0.305176, -2.746582
1023409, 0.316406, 0.904175, -0.326050, -1.708985, 0.427246, -3.234864
1023429, 0.315674, 0.911133, -0.312378, -4.394531, -3.906251, -4.394531
1023449, 0.307861, 0.908325, -0.309937, -7.690432, -1.403809, -5.249023
1023469, 0.332886, 0.913696, -0.301270, -12.573246, -6.042482, -7.080080
1023489, 0.308472, 0.933472, -0.231812, -14.526371, -11.108402, -9.277344
1023509, 0.278564, 0.943604, -0.199097, -11.718754, -14.282230, -8.972168
1023529, 0.257324, 0.952637, -0.179077, -7.202150, -14.221195, -7.751467
1023549, 0.223022, 0.958374, -0.166626, -1.159668, -9.216309, -5.371094
1023569, 0.283325, 0.953491, -0.165161, 6.408693, -4.882813, -5.126953
1023589, 0.265747, 0.938599, -0.248657, 8.605957, -7.385256, -3.784181
1023609, 0.272461, 0.923584, -0.290771, 6.469728, -7.934572, -4.760742
1023629, 0.262329, 0.920288, -0.304810, 2.014160, -8.789063, -2.746582
1023649, 0.293091, 0.925171, -0.297607, -1.770020, -4.882813, -4.943848
1023669, 0.270630, 0.923096, -0.299316, -6.103518, -5.126953, -6.164553
1023689, 0.270020, 0.932861, -0.270020, -10.131836, -6.835939, -6.713869
1023709, 0.231201, 0.940430, -0.248413, -11.596684, -6.286623, -6.042482
1023729, 0.197754, 0.956055, -0.193237, -9.643555, -2.868653, -2.746582
1023749, 0.207886, 0.970947, -0.135376, -2.807618, -1.953125, 2.075195
1023769, 0.246948, 0.972412, -0.128906, 6.713869, -2.441406, 4.394531
1023789, 0.242920, 0.956787, -0.180542, 14.038090, -2.136230, 4.760742
1023809, 0.219360, 0.936157, -0.253052, 16.052246, 2.319336, 6.713869
1023829, 0.257080, 0.920532, -0.308960, 12.817387, 5.249023, 8.544922
1023849, 0.328247, 0.915527, -0.322998, 7.202150, 4.577637, 5.920412
1023869, 0.353394, 0.915649, -0.325806, -1.647950, -0.976563, -2.990724
1023889, 0.333008, 0.913940, -0.312744, -7.141115, -4.882813, -8.728027
1023909, 0.291870, 0.922241, -0.304810, -11.962894, -5.798342, -12.390141
1023929, 0.263550, 0.933228, -0.267578, -15.136723, -6.103518, -13.549809
1023949, 0.230957, 0.950562, -0.206421, -14.587406, -5.798342, -12.756351
1023969, 0.196045, 0.977661, -0.117920, -7.629396, -4.760742, -9.704590
1023989, 0.165039, 0.990967, -0.081299, 5.187988, -2.624512, -4.577637
1024009, 0.155762, 0.971680, -0.125000, 16.967773, -0.061035, 2.258301
1024029, 0.163940, 0.955322, -0.198486, 23.559578, 2.563477, 9.094238
1024049, 0.195313, 0.937134, -0.259766, 25.207527, 3.906251, 14.770512
1024069, 0.278442, 0.917358, -0.344482, 19.348145, 6.774904, 16.723633
1024089, 0.351196, 0.890381, -0.412598, 6.408693, 8.972168, 10.192871
1024109, 0.391235, 0.905884, -0.339233, -1.098633, 2.868653, 3.295899
1024129, 0.387695, 0.911255, -0.324829, -3.295899, -4.394531, -4.699707
1024149, 0.359863, 0.901123, -0.376221, -11.108402, -5.126953, -13.122562
1024169, 0.328491, 0.916748, -0.315430, -18.310547, -7.934572, -19.409180
1024189, 0.256470, 0.938477, -0.240601, -19.287109, -10.253906, -21.667480
1024209, 0.206543, 0.956909, -0.186035, -15.563969, -11.230473, -19.348145
1024229, 0.175293, 0.970703, -0.149658, -8.056641, -9.277344, -15.441898
1024249, 0.131226, 0.969482, -0.169922, 3.906251, -4.333496, -6.042482
1024269, 0.116943, 0.958618, -0.209351, 8.911133, 0.915528, 1.953125
1024289, 0.133789, 0.945068, -0.252563, 10.681152, 8.117676, 9.399414
1024309, 0.184082, 0.932251, -0.297852, 8.666992, 15.319828, 14.343266
1024329, 0.257080, 0.923828, -0.314941, 3.845216, 18.432617, 15.502934
1024349, 0.337036, 0.925293, -0.295410, -0.488281, 13.977055, 11.779789
1024369, 0.379028, 0.931152, -0.274414, -3.173829, 5.432129, 4.333496
1024389, 0.372803, 0.941650, -0.247681, -3.906251, -3.540040, -4.211426
1024409, 0.324219, 0.951050, -0.222534, -2.319336, -8.911133, -10.803223
1024429, 0.256836, 0.951416, -0.218018, 0.671387, -11.413578, -13.488773
1024449, 0.172119, 0.944580, -0.250366, 2.624512, -9.765625, -8.850098
1024469, 0.154419, 0.947876, -0.253418, 2.868653, -5.432129, -2.929688
1024489, 0.165161, 0.944458, -0.257080, 3.173829, -0.549316, 2.807618
1024509, 0.200317, 0.942017, -0.265503, 2.868653, 2.685547, 6.774904
1024529, 0.241089, 0.941406, -0.266602, 2.136230, 2.990724, 8.300781
1024549, 0.270508, 0.939331, -0.270630, 1.281738, 1.403809, 7.324221
1024569, 0.276123, 0.930176, -0.260376, 0.488281, 1.159668, 5.004883
1024589, 0.284790, 0.939209, -0.255615, 0.732422, 0.122070, 2.563477
1024609, 0.285156, 0.936523, -0.258301, 0.732422, -2.319336, 0.061035
1024629, 0.285156, 0.936646, -0.271729, 0.061035, -6.042482, -3.662110
1024649, 0.248779, 0.932739, -0.274780, -1.220703, -6.225588, -5.371094
1024669, 0.220581, 0.941162, -0.273682, -2.197266, -3.540040, -4.394531
1024689, 0.231445, 0.972900, -0.268555, -2.990724, -2.563477, -2.441406
1024709, 0.211060, 0.908936, -0.230713, -2.319336, -1.525879, -1.831055
1024729, 0.239990, 0.939819, -0.239014, -1.403809, 0.122070, 0.061035
1024749, 0.242188, 0.961304, -0.241455, 1.220703, 2.075195, -0.671387
1024769, 0.238892, 0.933105, -0.246460, 1.708985, -1.831055, -0.122070
1024789, 0.234497, 0.923950, -0.264038, 1.159668, 0.732422, -0.061035
1024809, 0.228149, 0.976074, -0.273560, 1.220703, 2.868653, 1.037598
1024829, 0.210693, 0.939209, -0.255737, 1.464844, 4.760742, 1.770020
1024849, 0.252808, 0.944580, -0.272705, -0.244141, 1.281738, 4.089355
1024869, 0.261841, 0.932007, -0.259155, -0.732422, 1.892090, 2.624512
1024889, 0.256958, 0.955322, -0.260986, -0.915528, 0.305176, 1.953125
1024909, 0.254761, 0.930176, -0.239624, -0.976563, -1.403809, 1.708985
1024929, 0.234863, 0.951660, -0.239746, 1.037598, 2.502441, 1.708985
1024949, 0.240356, 0.942505, -0.245728, 2.136230, 0.488281, 3.234864
1024969, 0.238525, 0.934937, -0.263794, 1.892090, 1.892090, 3.967286
1024989, 0.248657, 0.939087, -0.262085, 1.220703, 1.892090, 4.821777
1025009, 0.243774, 0.930054, -0.260498, -0.122070, 2.441406, 5.615236
1025029, 0.243896, 0.946777, -0.254272, -0.244141, 4.211426, 6.835939
1025049, 0.253418, 0.937378, -0.229858, 0.976563, 2.990724, 8.056641
1025069, 0.276001, 0.941284, -0.254517, 0.427246, 5.981447, 7.080080
1025089, 0.308838, 0.930542, -0.275146, -3.967286, 3.479005, 3.723145
1025109, 0.313721, 0.942505, -0.234863, -5.920412, 0.061035, -0.305176
1025129, 0.309814, 0.944336, -0.210693, -4.089355, -3.906251, -3.601075
1025149, 0.291382, 0.941406, -0.222168, -2.014160, -3.112794, -6.469728
1025169, 0.284668, 0.936157, -0.241821, -0.549316, -3.906251, -7.568361
1025189, 0.255981, 0.925903, -0.253662, -0.244141, -2.807618, -5.554201
1025209, 0.271973, 0.942261, -0.244385, 0.366211, -3.723145, -3.112794
1025229, 0.261963, 0.941406, -0.250122, 3.479005, -4.821777, -4.394531
1025249, 0.255127, 0.934082, -0.284180, 4.272461, -4.028320, -5.798342
1025269, 0.232178, 0.925903, -0.303833, 1.159668, -1.098633, -5.493164
1025289, 0.217773, 0.930054, -0.293457, -3.234864, 0.000000, -3.417970
1025309, 0.203003, 0.940430, -0.254761, -5.065918, 2.380371, -0.183106
1025329, 0.212769, 0.949097, -0.229370, -4.150391, 4.089355, 3.295899
1025349, 0.233154, 0.949829, -0.218262, -2.197266, 6.469728, 5.432129
1025369, 0.259399, 0.949097, -0.215088, 0.305176, 6.896975, 5.981447
1025389, 0.279053, 0.946655, -0.219604, 3.295899, 3.845216, 5.187988
1025409, 0.275757, 0.941040, -0.229492, 5.004883, 2.441406, 4.089355
1025429, 0.266968, 0.939453, -0.241455, 5.676271, 2.075195, 3.723145
1025449, 0.258667, 0.936523, -0.250488, 5.737307, 2.441406, 3.967286
1025469, 0.253540, 0.933594, -0.258545, 5.065918, 3.662110, 4.760742
1025489, 0.259521, 0.932495, -0.261353, 4.150391, 5.615236, 5.676271
1025509, 0.278442, 0.925415, -0.273682, 1.953125, 5.920412, 5.737307
1025529, 0.294678, 0.942139, -0.273560, -1.098633, 2.807618, 5.187988
1025549, 0.282959, 0.921631, -0.213989, -0.122070, -1.586915, 4.882813
1025569, 0.302002, 0.940552, -0.250366, 1.586915, 1.708985, 3.479005
1025589, 0.301025, 0.928833, -0.254517, 0.915528, -0.305176, 0.305176
1025609, 0.283325, 0.937012, -0.252319, 0.488281, -2.624512, -0.061035
1025629, 0.274658, 0.932617, -0.247803, 0.549316, -2.990724, 0.122070
1025649, 0.259766, 0.933105, -0.252686, 0.793457, -0.915528, 1.037598
1025669, 0.266113, 0.930664, -0.254150, 0.549316, 0.793457, 2.380371
1025689, 0.268311, 0.931885, -0.254517, 0.244141, 1.831055, 3.540040
1025709, 0.279419, 0.931274, -0.250610, 0.000000, 3.051759, 3.967286
1025729, 0.296997, 0.928223, -0.251343, -0.183106, 4.089355, 3.723145
1025749, 0.319824, 0.928711, -0.247803, 0.061035, 0.610352, 2.502441
1025769, 0.301025, 0.928467, -0.254517, 0.244141, -1.037598, -0.122070
1025789, 0.283569, 0.928589, -0.250366, 0.305176, -0.732422, 0.244141
1025809, 0.299561, 0.929077, -0.246704, 0.915528, -0.549316, 0.488281
1025829, 0.304565, 0.927368, -0.257080, 0.915528, -0.793457, -0.732422
1025849, 0.286987, 0.925781, -0.269165, -0.488281, -0.488281, -1.342773
1025869, 0.275757, 0.928467, -0.258301, -1.770020, 0.183106, -0.427246
1025889, 0.281494, 0.934204, -0.236328, -1.525879, 0.427246, 0.305176
1025909, 0.279785, 0.936035, -0.228760, -0.061035, 0.732422, 1.037598
1025929, 0.282104, 0.935059, -0.231445, 1.403809, 0.488281, 2.197266
1025949, 0.289063, 0.933594, -0.239136, 2.380371, 0.122070, 2.319336
1025969, 0.280396, 0.925903, -0.246094, 3.051759, 0.427246, 3.601075
1025989, 0.278687, 0.932983, -0.245972, 3.051759, 1.281738, 4.760742
1026009, 0.286621, 0.928101, -0.247070, 3.662110, 1.770020, 5.676271
1026029, 0.292847, 0.926025, -0.253296, 3.662110, 2.746582, 6.164553
1026049, 0.315186, 0.926147, -0.249878, 3.723145, 1.892090, 5.798342
1026069, 0.319702, 0.921387, -0.257446, 3.723145, 1.098633, 4.638672
1026089, 0.311523, 0.925659, -0.257324, 3.295899, -1.220703, 4.089355
1026109, 0.295654, 0.920166, -0.258179, 3.112794, -0.061035, 4.272461
1026129, 0.286377, 0.921997, -0.262329, 2.807618, -0.183106, 5.737307
1026149, 0.278320, 0.923950, -0.255737, 2.380371, 1.464844, 9.521484
1026169, 0.283691, 0.923340, -0.238281, 3.295899, 2.563477, 12.451176
1026189, 0.292236, 0.919189, -0.234619, 5.310059, 1.464844, 15.136723
1026209, 0.260010, 0.922974, -0.231323, 7.873537, -6.042482, 20.507813
1026229, 0.266113, 0.905396, -0.278320, 8.605957, -0.732422, 25.939949
1026249, 0.295410, 0.892090, -0.300537, 5.920412, 5.065918, 29.357918
1026269, 0.326660, 0.891357, -0.292847, 3.295899, 7.751467, 32.348633
1026289, 0.366211, 0.892090, -0.271484, 2.075195, 2.197266, 34.606934
1026309, 0.398560, 0.883423, -0.270020, 1.892090, 1.159668, 34.057617
1026329, 0.411377, 0.877197, -0.279175, 1.098633, 3.540040, 30.700691
1026349, 0.427368, 0.873901, -0.274414, -0.427246, 3.662110, 28.869637
1026369, 0.432861, 0.871948, -0.259521, -0.671387, -1.037598, 28.686531
1026389, 0.442505, 0.868774, -0.254028, 0.183106, -4.516602, 28.442390
1026409, 0.452637, 0.866455, -0.252930, 1.281738, -7.934572, 27.404793
1026429, 0.489990, 0.858398, -0.256714, 2.258301, -8.544922, 24.658211
1026449, 0.496948, 0.854614, -0.262695, 3.173829, -11.474613, 21.484375
1026469, 0.506958, 0.852783, -0.272827, 3.356935, -13.183598, 17.211914
1026489, 0.483276, 0.852661, -0.268311, 3.845216, -10.437012, 13.549809
1026509, 0.462769, 0.849731, -0.258179, 5.310059, -7.385256, 12.146000
1026529, 0.473511, 0.849609, -0.258423, 8.605957, -12.023930, 12.939457
1026549, 0.490479, 0.838135, -0.289673, 9.765625, -11.535648, 12.023930
1026569, 0.494751, 0.833740, -0.307861, 8.789063, -10.803223, 9.704590
1026589, 0.489746, 0.831787, -0.295044, 8.300781, -10.559082, 7.934572
1026609, 0.486816, 0.835938, -0.285522, 9.216309, -9.033203, 6.713869
1026629, 0.479248, 0.838989, -0.281372, 10.986328, -11.657719, 6.469728
1026649, 0.488647, 0.819580, -0.351196, 6.347658, -1.647950, 3.845216
1026669, 0.499146, 0.817749, -0.356689, 2.258301, 4.272461, 1.037598
1026689, 0.494263, 0.833496, -0.300781, 1.281738, -0.305176, 0.671387
1026709, 0.479370, 0.831665, -0.286621, 4.211426, -0.732422, 0.366211
1026729, 0.490845, 0.820068, -0.336060, 3.417970, 10.314941, -3.112794
1026749, 0.490112, 0.821655, -0.331421, 1.586915, 15.808109, -5.737307
1026769, 0.502197, 0.837402, -0.334473, -0.732422, 8.972168, -7.019045
1026789, 0.526001, 0.833496, -0.328125, -2.624512, 4.516602, -9.887695
1026809, 0.540771, 0.839233, -0.319580, -5.065918, -0.671387, -16.479492
1026829, 0.520020, 0.853271, -0.301880, -2.868653, 0.488281, -20.629883
1026849, 0.502319, 0.854248, -0.288940, -1.220703, -5.432129, -23.315437
1026869, 0.475586, 0.865356, -0.285889, 0.793457, -9.948730, -24.536140
1026889, 0.445679, 0.877197, -0.288452, 2.563477, -14.404301, -24.169930
1026909, 0.416260, 0.862671, -0.301025, 2.319336, -17.944336, -19.409180
1026929, 0.417969, 0.871216, -0.314331, 0.488281, -18.920898, -20.202637
1026949, 0.435181, 0.852295, -0.311401, 0.000000, -22.155769, -19.531250
1026969, 0.444580, 0.838501, -0.313110, -1.770020, -19.104004, -24.475105
1026989, 0.436646, 0.851318, -0.325562, -3.234864, -25.207527, -30.151375
1027009, 0.387695, 0.858643, -0.337280, -4.455566, -22.277840, -34.301758
1027029, 0.388672, 0.860229, -0.339844, -5.981447, -34.362793, -32.775879
1027049, 0.371216, 0.871826, -0.330322, -4.272461, -28.747566, -32.165527
1027069, 0.350098, 0.875488, -0.329956, -2.624512, -34.606934, -31.066902
1027089, 0.328491, 0.869141, -0.328857, 1.037598, -26.245125, -32.958984
1027109, 0.325806, 0.872925, -0.348877, 2.746582, -30.517586, -35.705566
1027129, 0.278809, 0.853149, -0.382202, -0.305176, -28.259285, -36.682129
1027149, 0.239380, 0.860352, -0.383789, -4.577637, -27.648933, -33.386230
1027169, 0.210571, 0.899170, -0.348022, -6.774904, -23.132332, -25.573738
1027189, 0.178223, 0.917114, -0.304321, -4.333496, -16.662598, -17.272949
1027209, 0.175537, 0.928833, -0.312866, -0.732422, -11.779789, -11.230473
1027229, 0.180542, 0.912598, -0.348267, 0.854492, -6.530764, -6.591799
1027249, 0.183472, 0.904175, -0.368652, -0.793457, 0.000000, -2.868653
1027269, 0.200195, 0.904785, -0.359863, -2.563477, 4.394531, 0.061035
1027289, 0.214966, 0.916748, -0.338379, -2.746582, 5.859377, 3.112794
1027309, 0.216919, 0.915527, -0.344604, -2.807618, 9.338379, 2.929688
1027329, 0.229248, 0.913208, -0.345459, -2.868653, 12.329105, 3.173829
1027349, 0.251587, 0.922363, -0.333862, -2.624512, 16.540527, 3.417970
1027369, 0.264038, 0.925049, -0.321655, -0.244141, 15.563969, 3.784181
1027389, 0.277588, 0.910278, -0.319580, 1.892090, 10.681152, 2.990724
1027409, 0.299316, 0.908325, -0.321777, 3.051759, 4.333496, 2.075195
1027429, 0.302979, 0.921265, -0.336304, 3.356935, 0.183106, -1.525879
1027449, 0.286011, 0.922363, -0.338135, 3.051759, -2.197266, -4.272461
1027469, 0.249023, 0.919800, -0.323242, 4.333496, -4.394531, -5.126953
1027489, 0.237183, 0.913452, -0.327026, 5.859377, -4.272461, -4.760742
1027509, 0.220337, 0.917114, -0.354004, 6.103518, -3.112794, -3.479005
1027529, 0.205078, 0.917358, -0.364502, 4.882813, -1.220703, -0.305176
1027549, 0.218506, 0.900879, -0.356812, 3.234864, 2.014160, 2.014160
1027569, 0.228516, 0.897461, -0.351685, 2.136230, 5.493164, 2.807618
1027589, 0.236816, 0.902100, -0.340698, 2.624512, 6.835939, 3.967286
1027609, 0.240845, 0.902466, -0.339966, 3.356935, 7.263186, 5.126953
1027629, 0.243042, 0.898193, -0.351807, 3.112794, 9.155273, 6.042482
1027649, 0.262085, 0.903809, -0.357910, 2.014160, 10.192871, 7.202150
1027669, 0.280884, 0.910034, -0.338745, 2.075195, 9.704590, 6.774904
1027689, 0.283813, 0.914185, -0.335938, 2.502441, 8.666992, 5.798342
1027709, 0.291504, 0.914185, -0.333618, 3.417970, 5.920412, 5.065918
1027729, 0.305054, 0.906982, -0.347046, 3.540040, -0.366211, 2.990724
1027749, 0.283325, 0.901367, -0.370605, 2.563477, 4.882813, 0.732422
1027769, 0.282471, 0.898315, -0.368530, -0.183106, 1.831055, 0.366211
1027789, 0.280396, 0.893433, -0.339355, -0.976563, 4.516602, -0.122070
1027809, 0.270386, 0.903687, -0.331909, 0.305176, 3.540040, 0.244141
1027829, 0.255249, 0.910889, -0.347534, 1.342773, 5.310059, 2.258301
1027849, 0.275757, 0.912964, -0.352783, 0.915528, 5.432129, 5.859377
1027869, 0.291992, 0.904907, -0.354126, 0.671387, 3.784181, 5.615236
1027889, 0.301514, 0.889282, -0.351807, -0.305176, 2.990724, 3.540040
1027909, 0.300659, 0.880249, -0.343018, -0.976563, 2.990724, 1.159668
1027929, 0.287109, 0.892944, -0.343506, -1.464844, 4.333496, 0.061035
1027949, 0.269043, 0.899292, -0.345703, -2.380371, 6.286623, 0.976563
1027969, 0.274170, 0.907959, -0.339722, -2.807618, 8.056641, 3.723145
1027989, 0.298706, 0.914795, -0.323975, -1.403809, 7.019045, 5.065918
1028009, 0.311646, 0.906494, -0.328247, 0.183106, 4.821777, 3.784181
1028029, 0.320679, 0.895874, -0.333740, 0.793457, 2.319336, 2.624512
1028049, 0.308105, 0.899292, -0.335205, 0.061035, 2.990724, 0.793457
1028069, 0.308838, 0.899292, -0.329224, 0.305176, 3.234864, -0.122070
1028089, 0.299683, 0.900391, -0.326782, 1.403809, 3.784181, -0.061035
1028109, 0.295044, 0.898560, -0.323975, 2.746582, 3.540040, 2.014160
1028129, 0.288452, 0.895386, -0.333130, 3.112794, 4.577637, 2.319336
1028149, 0.296265, 0.898193, -0.339966, 2.075195, 5.493164, 2.624512
1028169, 0.302490, 0.902588, -0.330811, 1.892090, 7.568361, 2.807618
1028189, 0.321899, 0.904785, -0.316895, 3.112794, 6.713869, 3.479005
1028209, 0.343506, 0.914185, -0.311523, 5.554201, 3.295899, 3.967286
1028229, 0.360840, 0.908325, -0.322754, 8.422852, -2.014160, 1.342773
1028249, 0.364380, 0.890991, -0.338135, 9.643555, -6.103518, -2.624512
1028269, 0.348389, 0.874146, -0.344849, 9.582520, -7.934572, -6.408693
1028289, 0.328735, 0.867065, -0.337280, 9.338379, -9.765625, -7.629396
1028309, 0.291504, 0.876953, -0.330566, 10.070801, -10.498047, -8.239746
1028329, 0.259888, 0.903076, -0.337646, 11.657719, -6.958010, -6.652834
1028349, 0.239624, 0.920044, -0.363647, 12.756351, -2.319336, -3.906251
1028369, 0.225098, 0.901245, -0.395386, 11.962894, -0.183106, -1.708985
1028389, 0.210327, 0.861572, -0.425659, 7.751467, 5.676271, 0.000000
1028409, 0.221558, 0.859863, -0.435913, 0.976563, 17.333984, 3.295899
1028429, 0.300415, 0.921509, -0.370972, -3.173829, 24.597176, 8.544922
1028449, 0.342041, 0.891357, -0.323730, -0.732422, 14.221195, 9.582520
1028469, 0.345459, 0.893677, -0.336060, 2.014160, 5.126953, 9.094238
1028489, 0.342407, 0.890869, -0.342163, 3.845216, -1.953125, 8.850098
1028509, 0.321167, 0.881592, -0.343140, 6.774904, -5.737307, 11.108402
1028529, 0.284180, 0.869751, -0.396240, 7.263186, -5.310059, 13.732914
1028549, 0.258423, 0.862305, -0.433838, 2.685547, -0.732422, 16.784668
1028569, 0.250122, 0.865723, -0.424438, -3.662110, 8.483887, 20.385742
1028589, 0.275635, 0.869385, -0.380859, -7.263186, 18.371582, 24.292000
1028609, 0.371948, 0.871704, -0.330933, -5.981447, 24.047859, 27.282722
1028629, 0.433105, 0.854980, -0.346680, -4.211426, 22.521980, 24.597176
1028649, 0.412598, 0.857666, -0.377319, -5.065918, 14.709476, 22.399910
1028669, 0.390869, 0.901855, -0.388794, -8.972168, 9.887695, 23.620613
1028689, 0.405151, 0.811768, -0.277710, -9.460449, 5.432129, 25.512703
1028709, 0.347290, 0.839111, -0.214966, -1.342773, 15.563969, 20.874023
1028729, 0.442261, 0.919556, -0.284546, 4.028320, 12.390141, 26.306160
1028749, 0.439941, 0.863281, -0.193237, 13.916019, 11.291508, 25.695808
1028769, 0.480835, 0.834717, -0.360107, 19.409180, 15.197758, 22.949226
1028789, 0.592651, 0.787476, -0.488770, 9.521484, 19.836426, 14.648441
1028809, 0.580200, 0.824341, -0.362549, -3.906251, -0.061035, -1.281738
1028829, 0.587891, 0.831177, -0.302979, -2.746582, -7.080080, -9.948730
1028849, 0.625732, 0.824951, -0.344604, -1.708985, -15.258793, -22.094727
1028869, 0.566650, 0.814453, -0.399902, -5.676271, -22.338875, -34.423828
1028889, 0.459473, 0.820679, -0.388428, -11.779789, -29.174812, -39.062500
1028909, 0.399414, 0.854004, -0.304443, -13.000492, -33.935547, -38.940430
1028929, 0.340942, 0.885986, -0.232666, -6.530764, -32.775879, -36.071777
1028949, 0.294800, 0.894287, -0.231201, 3.173829, -27.282722, -31.127937
1028969, 0.272827, 0.888428, -0.286987, 10.131836, -21.484375, -24.292000
1028989, 0.221802, 0.875366, -0.351807, 11.962894, -5.615236, -14.160160
1029009, 0.219116, 0.877441, -0.370239, 9.704590, 4.394531, -5.004883
1029029, 0.243530, 0.871826, -0.382690, 5.432129, 12.878422, 3.417970
1029049, 0.306396, 0.866333, -0.380127, -1.037598, 20.385742, 9.582520
1029069, 0.379272, 0.875732, -0.350342, -4.333496, 20.446777, 9.765625
1029089, 0.435913, 0.876099, -0.313477, -3.417970, 13.854984, 5.859377
1029109, 0.473877, 0.886353, -0.300659, -1.159668, 3.906251, 0.915528
1029129, 0.493042, 0.874512, -0.310669, 1.464844, -5.310059, -6.530764
1029149, 0.488037, 0.866699, -0.331909, 2.807618, -13.610844, -14.709476
1029169, 0.424561, 0.867798, -0.345947, 3.112794, -19.836426, -20.263672
1029189, 0.313354, 0.866455, -0.376099, 4.516602, -22.583015, -22.338875
1029209, 0.244019, 0.860352, -0.391846, 3.479005, -14.099125, -16.906738
1029229, 0.279175, 0.868530, -0.374146, 4.638672, -6.347658, -12.268070
1029249, 0.263184, 0.860596, -0.410889, 5.310059, 3.417970, -6.591799
1029269, 0.323853, 0.874512, -0.411743, 4.699707, 5.676271, -7.568361
1029289, 0.295654, 0.865601, -0.410034, 3.662110, -0.732422, -8.666992
1029309, 0.282349, 0.872925, -0.425659, 2.075195, -7.080080, -6.774904
1029329, 0.270020, 0.856934, -0.447144, -0.305176, -3.906251, -6.347658
1029349, 0.278564, 0.877563, -0.434082, -3.417970, 0.671387, -7.568361
1029369, 0.281738, 0.887695, -0.370483, -7.141115, 5.126953, -6.225588
1029389, 0.288208, 0.899414, -0.331055, -5.554201, 3.417970, -4.577637
1029409, 0.273071, 0.912842, -0.306641, -0.976563, 2.807618, -3.234864
1029429, 0.269531, 0.908325, -0.309937, 4.211426, 1.831055, -0.610352
1029449, 0.295044, 0.895386, -0.338867, 7.080080, 2.746582, 0.976563
1029469, 0.322021, 0.889404, -0.376099, 7.019045, 1.831055, 0.427246
1029489, 0.330566, 0.880859, -0.394409, 4.699707, -0.183106, -1.464844
1029509, 0.323853, 0.875977, -0.390259, 2.563477, -3.723145, -2.197266
1029529, 0.284424, 0.882446, -0.372192, 1.708985, -2.624512, -1.831055
1029549, 0.281006, 0.885498, -0.366577, 2.502441, -2.258301, 0.061035
1029569, 0.269043, 0.877808, -0.383057, 2.258301, 0.549316, 5.249023
1029589, 0.273926, 0.877319, -0.399170, 0.793457, 5.554201, 6.469728
1029609, 0.288940, 0.873657, -0.401611, -1.403809, 8.056641, 7.812502
1029629, 0.311768, 0.871460, -0.390381, -3.173829, 9.582520, 9.094238
1029649, 0.345947, 0.874634, -0.376953, -4.577637, 9.521484, 8.789063
1029669, 0.370361, 0.877930, -0.369873, -5.065918, 6.286623, 6.042482
1029689, 0.388794, 0.882568, -0.357056, -5.187988, 1.159668, 2.563477
1029709, 0.385986, 0.890625, -0.336548, -3.723145, -3.112794, -2.319336
1029729, 0.347778, 0.888306, -0.331055, -1.037598, -5.432129, -5.249023
1029749, 0.291138, 0.886475, -0.345581, 4.699707, -8.300781, -4.028320
1029769, 0.291260, 0.880859, -0.383057, 3.906251, -6.408693, -1.953125
1029789, 0.293213, 0.878906, -0.388794, 0.854492, -0.610352, -1.037598
1029809, 0.297852, 0.885498, -0.357544, 0.427246, 1.770020, 0.122070
1029829, 0.318115, 0.885132, -0.359985, 1.525879, 3.540040, 0.427246
1029849, 0.337158, 0.879517, -0.373047, 1.281738, 2.014160, -0.305176
1029869, 0.339111, 0.883423, -0.362915, 0.976563, -0.732422, -1.464844
1029889, 0.327393, 0.889526, -0.348877, 2.197266, -3.417970, -2.441406
1029909, 0.305054, 0.884155, -0.366089, 3.173829, -3.295899, -2.258301
1029929, 0.304443, 0.877319, -0.375244, 2.990724, -1.586915, -1.525879
1029949, 0.308472, 0.875732, -0.384277, 2.563477, 0.122070, -0.915528
1029969, 0.305908, 0.877197, -0.388428, 1.281738, 2.624512, -0.732422
1029989, 0.307861, 0.876465, -0.385132, 0.000000, -0.854492, 0.366211
1030009, 0.324341, 0.879028, -0.377686, -0.793457, -0.122070, 0.244141
1030029, 0.328247, 0.880737, -0.369385, -0.976563, -0.305176, -0.915528
1030049, 0.324219, 0.884521, -0.361938, -0.122070, -1.647950, -1.403809
1030069, 0.320435, 0.885254, -0.357666, 0.854492, -2.685547, -1.770020
1030089, 0.313721, 0.885742, -0.363403, 1.464844, -3.906251, -1.953125
1030109, 0.299561, 0.885254, -0.369507, 1.342773, -4.211426, -1.647950
1030129, 0.292725, 0.883789, -0.372192, 1.037598, -1.770020, 0.000000
1030149, 0.293457, 0.881226, -0.375732, 1.098633, 0.061035, 0.915528
1030170, 0.293579, 0.879028, -0.381348, 0.549316, 1.586915, 2.075195
1030190, 0.305908, 0.877319, -0.383789, -0.305176, 3.295899, 2.868653
1030210, 0.322144, 0.879028, -0.382202, -1.220703, 4.028320, 2.624512
1030230, 0.339111, 0.881714, -0.363281, -0.732422, 3.173829, 1.831055
1030250, 0.347656, 0.880981, -0.356689, 0.854492, 0.183106, 0.366211
1030270, 0.345459, 0.878296, -0.376099, 1.586915, -2.868653, -1.464844
1030290, 0.322754, 0.876953, -0.385132, 0.732422, -3.295899, -3.051759
1030310, 0.307739, 0.883057, -0.372925, -0.305176, -1.403809, -3.601075
1030330, 0.306885, 0.884155, -0.367310, -0.122070, -1.281738, -3.051759
1030350, 0.308838, 0.885620, -0.367310, -0.305176, -1.770020, -2.685547
1030370, 0.304810, 0.887695, -0.365234, -0.488281, -1.708985, -2.624512
1030390, 0.291504, 0.885254, -0.364868, -0.122070, -0.854492, -1.770020
1030410, 0.290527, 0.885010, -0.366211, 0.427246, -0.366211, -0.244141
1030430, 0.304565, 0.880493, -0.374512, 0.671387, 1.342773, 0.610352
1030450, 0.312988, 0.880493, -0.378052, 0.549316, 1.586915, 0.366211
1030470, 0.316528, 0.881836, -0.378296, 0.061035, 1.464844, 0.061035
1030490, 0.330933, 0.886230, -0.363403, -0.183106, -0.061035, -1.403809
1030510, 0.324463, 0.887451, -0.358154, 0.427246, -1.708985, -2.380371
1030530, 0.313232, 0.886597, -0.359131, 1.403809, -3.417970, -2.746582
1030550, 0.305542, 0.886841, -0.362671, 1.831055, -3.295899, -2.624512
1030570, 0.294556, 0.889282, -0.363525, 2.319336, -3.662110, -2.075195
1030590, 0.293701, 0.888306, -0.356201, 3.295899, -3.601075, -0.671387
1030610, 0.294556, 0.889404, -0.358398, 4.943848, -3.112794, -0.061035
1030630, 0.286743, 0.880005, -0.379272, 5.493164, -1.647950, 0.976563
1030650, 0.289917, 0.875122, -0.399292, 4.333496, 0.427246, 2.136230
1030670, 0.299194, 0.871948, -0.402832, 2.258301, 2.258301, 2.563477
1030690, 0.310425, 0.874390, -0.400391, -0.671387, 4.882813, 2.380371
1030710, 0.322510, 0.875366, -0.386353, -2.014160, 4.577637, 1.831055
1030730, 0.333130, 0.881592, -0.372192, -2.197266, 1.953125, 1.098633
1030750, 0.342041, 0.882324, -0.364624, -1.464844, -1.098633, -0.610352
1030770, 0.338135, 0.882446, -0.365479, -0.610352, -3.967286, -2.319336
1030790, 0.311401, 0.884888, -0.370605, 0.000000, -5.493164, -3.051759
1030810, 0.297485, 0.882446, -0.373779, 0.244141, -5.920412, -2.319336
1030830, 0.284180, 0.881104, -0.376099, 0.366211, -3.845216, -1.159668
1030850, 0.272217, 0.880493, -0.381226, 0.122070, -1.647950, 0.915528
1030870, 0.286499, 0.879639, -0.386475, -1.098633, 2.868653, 3.967286
1030890, 0.310913, 0.883667, -0.371094, -1.403809, 4.028320, 4.516602
1030910, 0.337036, 0.888306, -0.349121, -0.061035, 3.417970, 3.662110
1030930, 0.345093, 0.887207, -0.347656, 2.258301, -0.549316, 2.075195
1030950, 0.341675, 0.881714, -0.363159, 3.906251, -3.845216, 0.244141
1030970, 0.325562, 0.876343, -0.381226, 4.150391, -5.798342, -0.793457
1030990, 0.304077, 0.872314, -0.400146, 2.868653, -4.882813, -1.037598
1031010, 0.297363, 0.872681, -0.401855, 0.732422, -2.868653, -0.122070
1031030, 0.297607, 0.875977, -0.388794, -0.488281, -0.488281, 0.671387
1031050, 0.302612, 0.878174, -0.379517, -0.793457, 1.098633, 1.342773
1031070, 0.315796, 0.880127, -0.373901, -0.549316, 0.915528, 1.831055
1031090, 0.324707, 0.882202, -0.367676, 0.122070, -0.488281, 1.708985
1031110, 0.341797, 0.882080, -0.364990, 1.037598, -3.295899, 0.793457
1031130, 0.331177, 0.882813, -0.366455, 2.075195, -5.004883, -0.793457
1031150, 0.304443, 0.881714, -0.370239, 3.173829, -5.737307, -0.793457
1031170, 0.288330, 0.875000, -0.387695, 3.234864, -3.601075, 0.732422
1031190, 0.291870, 0.873901, -0.394043, 2.380371, -1.159668, 2.197266
1031210, 0.299927, 0.873779, -0.391113, 1.525879, 1.098633, 3.295899
1031230, 0.316650, 0.876831, -0.379272, 1.342773, 1.953125, 3.845216
1031250, 0.328247, 0.880127, -0.366211, 3.173829, 1.220703, 3.051759
1031270, 0.328857, 0.874878, -0.375854, 4.333496, 1.464844, 2.441406
1031290, 0.332642, 0.872681, -0.386841, 4.516602, 0.671387, 1.831055
1031310, 0.327759, 0.869995, -0.394653, 4.028320, 0.488281, 1.220703
1031330, 0.324707, 0.866943, -0.410400, 1.403809, 2.868653, 1.159668
1031350, 0.333618, 0.868652, -0.398804, -0.610352, 1.953125, 0.793457
1031370, 0.318115, 0.873657, -0.372925, 0.366211, 1.281738, 0.549316
1031390, 0.317017, 0.872559, -0.375732, 2.502441, 0.000000, 1.281738
1031410, 0.328613, 0.869019, -0.394531, 2.685547, 1.281738, 1.342773
1031430, 0.333862, 0.869751, -0.391113, 2.075195, -0.915528, 0.976563
1031450, 0.326904, 0.866943, -0.397095, 1.281738, -0.427246, 1.098633
1031470, 0.318237, 0.864746, -0.401733, 0.915528, 1.464844, 0.793457
1031490, 0.316650, 0.862671, -0.412476, -0.671387, 5.004883, 1.159668
1031510, 0.344360, 0.869751, -0.384399, -1.892090, 3.967286, 1.220703
1031530, 0.352783, 0.881958, -0.348145, 0.244141, 1.586915, -0.061035
1031570, 0.314453, 0.864136, -0.398071, 4.699707, 0.366211, -0.671387
1031590, 0.330811, 0.856445, -0.428955, 1.953125, 3.479005, -0.549316
1031610, 0.355103, 0.859741, -0.415527, -1.098633, 2.502441, -1.464844
1031630, 0.365479, 0.869385, -0.389282, -2.319336, -2.380371, -4.821777
1031650, 0.331299, 0.869507, -0.390259, -2.624512, -5.187988, -5.920412
1031670, 0.298340, 0.873657, -0.377686, -2.502441, -4.455566, -4.882813
1031690, 0.280396, 0.878540, -0.364624, -1.159668, -1.464844, -2.197266
1031710, 0.288330, 0.878662, -0.361572, 0.976563, 0.976563, 0.549316
1031730, 0.301880, 0.879028, -0.367920, 2.624512, 1.708985, 2.746582
1031750, 0.314697, 0.873535, -0.375854, 3.784181, 1.281738, 4.333496
1031770, 0.334106, 0.869629, -0.382813, 4.516602, -0.122070, 4.638672
1031790, 0.327148, 0.862427, -0.406738, 3.906251, 0.366211, 4.211426
1031810, 0.317017, 0.857422, -0.423462, -0.061035, 2.197266, 5.187988
1031830, 0.319214, 0.862915, -0.397949, -1.831055, 2.929688, 6.286623
1031850, 0.331055, 0.866211, -0.390259, -2.136230, 4.638672, 7.019045
1031870, 0.358765, 0.867065, -0.385132, -2.319336, 2.685547, 6.652834
1031890, 0.368042, 0.869629, -0.367676, -1.647950, 0.610352, 5.065918
1031910, 0.364868, 0.871582, -0.358765, 0.366211, -0.061035, 3.356935
1031930, 0.376099, 0.869385, -0.366455, 2.319336, -2.197266, 1.586915
1031950, 0.363892, 0.864014, -0.387573, 2.868653, -4.577637, 0.000000
1031970, 0.353394, 0.862427, -0.389771, 2.380371, -5.920412, -0.732422
1031990, 0.337036, 0.863037, -0.389038, 2.258301, -5.371094, -1.037598
1032010, 0.330322, 0.857666, -0.407959, 1.220703, -2.624512, 0.244141
1032030, 0.323730, 0.854614, -0.417847, -0.854492, -0.915528, 0.854492
1032050, 0.326538, 0.859863, -0.389038, -1.342773, -1.708985, 2.929688
1032070, 0.331787, 0.861816, -0.380737, -0.183106, -0.610352, 4.089355
1032090, 0.332397, 0.863037, -0.396118, -0.244141, -0.305176, 5.065918
1032110, 0.352051, 0.860718, -0.393677, -1.464844, -0.061035, 5.493164
1032130, 0.367554, 0.863037, -0.380371, -1.342773, -1.770020, 4.882813
1032150, 0.365234, 0.862427, -0.375000, 0.244141, -1.831055, 4.211426
1032170, 0.368408, 0.853027, -0.386963, 1.159668, -3.173829, 3.295899
1032190, 0.363525, 0.855713, -0.399780, 0.549316, -4.089355, 2.075195
1032210, 0.359131, 0.856323, -0.404663, -1.037598, -3.845216, 1.281738
1032230, 0.368286, 0.862793, -0.378906, -1.586915, -2.746582, 0.427246
1032250, 0.367188, 0.869629, -0.358887, 0.000000, -3.417970, -0.976563
1032270, 0.355835, 0.870605, -0.356445, 2.380371, -4.821777, -1.525879
1032290, 0.330688, 0.870972, -0.365723, 5.126953, -2.197266, -0.732422
1032310, 0.315308, 0.858032, -0.384399, 6.286623, -5.859377, 1.342773
1032330, 0.307129, 0.855591, -0.421509, 4.760742, 0.183106, 3.295899
1032350, 0.314697, 0.850220, -0.423462, 1.708985, 5.676271, 5.065918
1032370, 0.344116, 0.854370, -0.393921, 0.488281, 7.446291, 6.530764
1032390, 0.395142, 0.858643, -0.371826, 2.197266, 5.798342, 5.920412
1032410, 0.410889, 0.858887, -0.378784, 3.784181, 1.770020, 3.662110
1032430, 0.396484, 0.846313, -0.405640, 4.089355, -3.173829, 0.305176
1032450, 0.348633, 0.836792, -0.435059, 1.525879, -2.441406, -0.549316
1032470, 0.329224, 0.839233, -0.431763, -1.708985, 0.488281, 1.098633
1032490, 0.338501, 0.846191, -0.411499, -3.784181, 4.882813, 2.868653
1032510, 0.364014, 0.853638, -0.385742, -3.601075, 7.568361, 3.540040
1032530, 0.397949, 0.859619, -0.371704, -2.258301, 5.432129, 2.624512
1032550, 0.394897, 0.862061, -0.346436, 2.746582, 2.075195, 0.305176
1032570, 0.387451, 0.844727, -0.410889, 4.943848, 0.854492, -1.525879
1032590, 0.384766, 0.846313, -0.411133, 3.723145, 0.671387, -4.089355
1032610, 0.362915, 0.847046, -0.400757, 3.540040, -0.122070, -4.882813
1032630, 0.355835, 0.848145, -0.401611, 3.295899, 1.342773, -4.699707
1032650, 0.362061, 0.853149, -0.391479, 3.540040, 4.272461, -4.272461
1032670, 0.372559, 0.855835, -0.389282, 4.150391, 4.394531, -4.882813
1032690, 0.378784, 0.852783, -0.388794, 4.394531, 2.380371, -6.103518
1032710, 0.364624, 0.854614, -0.392700, 3.845216, 1.770020, -7.080080
1032730, 0.353638, 0.856934, -0.388184, 3.051759, 1.464844, -6.652834
1032750, 0.346802, 0.859375, -0.386108, 2.441406, 1.586915, -5.310059
1032770, 0.336914, 0.858276, -0.391846, 2.502441, 1.037598, -3.967286
1032790, 0.336670, 0.851685, -0.398560, 2.319336, 1.586915, -2.746582
1032810, 0.331177, 0.849243, -0.407104, 1.342773, 3.234864, -0.671387
1032830, 0.343750, 0.849487, -0.406616, 0.366211, 4.882813, 1.159668
1032850, 0.363281, 0.849731, -0.394897, 0.061035, 5.432129, 1.831055
1032870, 0.372559, 0.856445, -0.390625, 0.549316, 3.845216, 1.464844
1032890, 0.377686, 0.851196, -0.397095, 0.732422, 2.014160, 0.366211
1032910, 0.371582, 0.849243, -0.399780, 0.366211, 0.976563, -0.427246
1032930, 0.375122, 0.844727, -0.397339, 0.000000, 1.159668, -0.427246
1032950, 0.375000, 0.853394, -0.394653, 0.061035, -0.915528, -0.549316
1032970, 0.366333, 0.850952, -0.398682, -0.061035, -1.525879, -1.220703
1032990, 0.355957, 0.857422, -0.390259, 0.061035, -2.136230, -1.037598
1033010, 0.350342, 0.855835, -0.383545, 0.915528, -1.220703, -0.610352
1033030, 0.363159, 0.854492, -0.388062, 1.770020, -1.159668, 0.183106
1033050, 0.362793, 0.850464, -0.400024, 2.014160, -1.220703, -0.183106
1033070, 0.358398, 0.847656, -0.409912, 0.976563, -1.342773, -0.427246
1033090, 0.359131, 0.849854, -0.401733, 0.061035, -0.427246, -0.122070
1033110, 0.363647, 0.856934, -0.393677, 0.122070, 0.793457, -0.488281
1033130, 0.391113, 0.858887, -0.386475, 0.366211, 0.427246, -1.647950
1033150, 0.414063, 0.869141, -0.372925, 2.929688, -4.089355, -4.882813
1033170, 0.402832, 0.857422, -0.378296, 5.798342, -8.789063, -7.446291
1033190, 0.354736, 0.842163, -0.408081, 7.446291, -13.610844, -9.765625
1033210, 0.312744, 0.838257, -0.439209, 5.187988, -11.718754, -8.300781
1033230, 0.287109, 0.840210, -0.442627, 2.197266, -8.544922, -6.347658
1033250, 0.283325, 0.846680, -0.424927, -0.671387, -0.732422, -1.281738
1033270, 0.319702, 0.850830, -0.399292, -0.854492, 1.586915, 1.586915
1033290, 0.341675, 0.854492, -0.396118, -0.122070, 3.540040, 2.380371
1033310, 0.356323, 0.858887, -0.404419, 0.671387, 0.610352, 1.892090
1033330, 0.348145, 0.857422, -0.410034, 0.549316, -2.929688, 0.183106
1033370, 0.337524, 0.860352, -0.398560, 0.732422, -0.427246, 1.403809
1033390, 0.353027, 0.852539, -0.400635, 1.708985, -0.183106, 1.708985
1033410, 0.353027, 0.851196, -0.411865, 2.075195, -1.647950, 1.159668
1033430, 0.348999, 0.843384, -0.423340, 1.159668, -1.586915, 0.427246
1033450, 0.341797, 0.845459, -0.420532, 0.061035, -0.244141, -0.183106
1033470, 0.342651, 0.850952, -0.408447, 0.122070, 0.793457, 0.244141
1033490, 0.346802, 0.854004, -0.409668, 0.732422, 1.342773, -0.061035
1033510, 0.359131, 0.853760, -0.408569, 0.793457, 0.732422, -0.610352
1033530, 0.357788, 0.858643, -0.405518, 1.403809, -0.549316, -1.892090
1033550, 0.353394, 0.854858, -0.404785, 1.831055, -1.220703, -2.380371
1033570, 0.343994, 0.854248, -0.409668, 2.136230, -0.854492, -2.746582
1033590, 0.336182, 0.860474, -0.406006, 3.417970, 1.892090, -2.136230
1033610, 0.352539, 0.841675, -0.412109, 3.662110, -2.258301, -2.014160
1033630, 0.346313, 0.847168, -0.425171, 2.441406, -1.342773, -2.929688
1033650, 0.336670, 0.859131, -0.420898, 2.014160, -0.061035, -2.624512
1033670, 0.343994, 0.851563, -0.409912, 1.892090, 3.601075, -2.502441
1033690, 0.357666, 0.848755, -0.402588, 3.295899, 1.770020, -3.479005
1033710, 0.341064, 0.867554, -0.404663, 8.178711, 5.981447, -4.333496
1033730, 0.333618, 0.816528, -0.447510, 8.056641, -2.258301, -3.845216
1033750, 0.326782, 0.846313, -0.461304, 2.868653, 4.943848, -5.187988
1033770, 0.317749, 0.850464, -0.424683, 0.183106, 1.220703, -3.173829
1033790, 0.318359, 0.854614, -0.395020, 1.037598, 2.014160, -1.159668
1033810, 0.331665, 0.852295, -0.402222, 2.929688, 3.601075, -1.037598
1033830, 0.340332, 0.851440, -0.423706, 2.929688, 3.662110, -0.671387
1033850, 0.354858, 0.863281, -0.428467, 1.220703, 3.479005, -0.549316
1033870, 0.369141, 0.865356, -0.401733, 1.342773, 1.403809, -1.281738
1033890, 0.374756, 0.850464, -0.383179, 3.784181, 1.159668, -4.028320
1033910, 0.348999, 0.858154, -0.416504, 7.019045, -2.807618, -6.774904
1033930, 0.331055, 0.847168, -0.443359, 6.286623, -5.676271, -5.859377
1033950, 0.319092, 0.857666, -0.443237, 4.577637, -2.075195, -5.065918
1033970, 0.331787, 0.851563, -0.422363, 4.638672, -0.793457, -4.638672
1033990, 0.348877, 0.843140, -0.410767, 6.530764, -2.136230, -5.737307
1034010, 0.342651, 0.844727, -0.433350, 7.263186, -6.103518, -6.958010
1034030, 0.331055, 0.850464, -0.449341, 6.225588, -6.286623, -7.202150
1034050, 0.319824, 0.857300, -0.443359, 5.371094, -5.126953, -6.958010
1034090, 0.326294, 0.841919, -0.434204, 8.239746, -8.422852, -7.080080
1034110, 0.283813, 0.835083, -0.465942, 7.751467, -10.925293, -7.568361
1034130, 0.238037, 0.826538, -0.488892, 4.882813, -11.108402, -3.479005
1034150, 0.219116, 0.827148, -0.493530, 0.976563, -4.089355, 0.488281
1034170, 0.249268, 0.834229, -0.469971, -1.403809, 2.319336, 2.807618
1034190, 0.265503, 0.845825, -0.447632, -1.586915, 7.751467, 5.249023
1034210, 0.320435, 0.858154, -0.441284, -0.488281, 8.605957, 8.422852
1034230, 0.373169, 0.847534, -0.441528, 1.464844, 4.882813, 5.554201
1034250, 0.384766, 0.834595, -0.447144, 2.868653, 1.037598, -0.976563
1034270, 0.360840, 0.835083, -0.452515, 3.601075, -2.990724, -5.920412
1034290, 0.294922, 0.852051, -0.460449, 3.723145, -5.554201, -5.310059
1034310, 0.277710, 0.852905, -0.459717, 2.807618, -1.770020, -2.746582
1034330, 0.291138, 0.847534, -0.449463, 1.770020, 3.173829, -0.061035
1034350, 0.319824, 0.842407, -0.442017, 2.014160, 1.342773, 0.915528
1034370, 0.324951, 0.842285, -0.453613, 2.685547, -1.953125, 0.122070
1034390, 0.321533, 0.842163, -0.467896, 2.502441, -4.943848, -0.915528
1034410, 0.301392, 0.836182, -0.473999, 1.586915, -6.469728, -1.342773
1034430, 0.278442, 0.833862, -0.472534, 0.244141, -4.455566, -0.122070
1034450, 0.270508, 0.838257, -0.465576, -0.915528, -0.305176, 2.441406
1034470, 0.302246, 0.843140, -0.447754, -0.671387, 5.798342, 5.004883
1034490, 0.326904, 0.840942, -0.450562, 0.549316, 4.821777, 3.601075
1034510, 0.333862, 0.855225, -0.454712, 1.037598, 0.976563, 1.892090
1034530, 0.332031, 0.854492, -0.449707, 1.770020, -2.319336, 0.732422
1034550, 0.322266, 0.850098, -0.448608, 2.685547, -3.906251, 0.854492
1034570, 0.319214, 0.836060, -0.454346, 3.112794, -3.540040, 1.098633
1034590, 0.308350, 0.823975, -0.471924, 2.624512, -3.051759, 0.793457
1034610, 0.294434, 0.826050, -0.487183, 0.793457, -0.732422, 1.098633
1034630, 0.298706, 0.829590, -0.478638, -1.159668, 2.136230, 2.075195
1034650, 0.308105, 0.838379, -0.459229, -1.770020, 3.295899, 2.990724
1034670, 0.337280, 0.836792, -0.449585, -0.305176, 3.051759, 0.793457
1034690, 0.322632, 0.834961, -0.461304, -0.122070, 1.953125, -0.183106
1034710, 0.319214, 0.836182, -0.467773, -1.037598, 1.647950, 0.122070
1034730, 0.321411, 0.832031, -0.460693, -1.892090, 1.586915, -0.244141
1034750, 0.312866, 0.834839, -0.453247, -2.136230, 1.342773, -0.061035
1034770, 0.306641, 0.837769, -0.453247, -2.075195, 1.586915, 0.732422
1034790, 0.304688, 0.829834, -0.463379, -3.112794, 3.051759, 2.014160
1034810, 0.301636, 0.830200, -0.467529, -4.577637, 5.249023, 2.868653
1034830, 0.301025, 0.828735, -0.465820, -5.981447, 7.324221, 4.394531
1034850, 0.321411, 0.842529, -0.455933, -7.019045, 11.230473, 5.615236
1034870, 0.349243, 0.848755, -0.439941, -7.324221, 11.413578, 6.164553
1034890, 0.374756, 0.856689, -0.414307, -5.920412, 9.521484, 4.760742
1034910, 0.385742, 0.854614, -0.405884, -2.929688, 5.065918, 1.647950
1034930, 0.379395, 0.852173, -0.422241, -0.610352, 1.586915, -1.464844
1034950, 0.364258, 0.839478, -0.442017, -0.488281, -1.892090, -3.112794
1034970, 0.342651, 0.833374, -0.445313, -1.831055, -3.784181, -3.784181
1034990, 0.315186, 0.833740, -0.445068, -3.601075, -2.197266, -3.356935
1035010, 0.298096, 0.845703, -0.441772, -4.882813, 2.197266, -2.136230
1035030, 0.297729, 0.847046, -0.438477, -5.615236, 5.554201, -1.098633
1035050, 0.332397, 0.853149, -0.424438, -7.324221, 10.070801, -0.488281
1035070, 0.333008, 0.860229, -0.398682, -5.554201, 7.934572, 1.098633
1035090, 0.332397, 0.856567, -0.406494, -3.479005, 6.286623, 3.356935
1035110, 0.371826, 0.848267, -0.412842, -3.906251, 6.347658, 2.380371
1035130, 0.380005, 0.844604, -0.421997, -5.187988, 9.460449, -2.990724
1035150, 0.350952, 0.876221, -0.407471, -5.249023, 1.281738, -2.319336
1035170, 0.330200, 0.866943, -0.392334, -3.295899, 0.000000, 0.122070
1035190, 0.321655, 0.850464, -0.395386, -1.953125, 0.915528, 2.563477
1035210, 0.321289, 0.853516, -0.406006, -1.586915, 3.051759, 4.272461
1035230, 0.354858, 0.850098, -0.413452, -2.502441, 4.333496, 5.371094
1035250, 0.366699, 0.854248, -0.405029, -3.051759, 3.784181, 4.638672
1035270, 0.373779, 0.854492, -0.393188, -2.746582, 2.258301, 3.723145
1035290, 0.387085, 0.855225, -0.387817, -1.953125, -0.671387, 2.319336
1035310, 0.383789, 0.858398, -0.392944, -1.220703, -4.394531, 0.549316
1035330, 0.360596, 0.853394, -0.394043, -0.915528, -6.286623, -0.183106
1035350, 0.351563, 0.855957, -0.390503, -0.244141, -6.103518, -0.183106
1035370, 0.349487, 0.855957, -0.397461, 0.183106, -5.004883, -0.061035
1035390, 0.353149, 0.853638, -0.400879, 0.244141, -3.967286, 0.000000
1035410, 0.350586, 0.858154, -0.392700, 0.671387, -4.699707, 0.183106
1035430, 0.324585, 0.851929, -0.407715, 1.037598, -1.159668, 1.831055
1035450, 0.337646, 0.851807, -0.408325, 0.549316, 2.014160, 2.807618
1035470, 0.348022, 0.854736, -0.408081, 0.000000, 3.906251, 3.784181
1035490, 0.369873, 0.844727, -0.394043, -0.305176, 5.126953, 2.807618
1035510, 0.403198, 0.865967, -0.377686, 0.854492, -1.342773, 2.014160
1035530, 0.369019, 0.842041, -0.405640, -0.427246, 3.417970, 0.671387
1035550, 0.376465, 0.850342, -0.400391, -1.647950, -0.549316, 0.549316
1035570, 0.365967, 0.856812, -0.375732, -0.610352, -0.732422, -0.183106
1035590, 0.357544, 0.861206, -0.377197, 2.685547, -2.014160, -0.427246
1035610, 0.328003, 0.839722, -0.433105, 3.845216, -0.122070, -0.488281
1035630, 0.331299, 0.835083, -0.455811, -0.427246, 5.432129, 1.220703
1035650, 0.350830, 0.838989, -0.432007, -4.211426, 11.108402, 1.708985
1035670, 0.383667, 0.851196, -0.400391, -5.615236, 11.169437, 1.220703
1035690, 0.417725, 0.858154, -0.374756, -4.638672, 6.225588, -0.976563
1035710, 0.418457, 0.852783, -0.355835, -1.525879, -0.610352, -2.563477
1035730, 0.407471, 0.859619, -0.344360, 2.685547, -5.065918, -4.150391
1035750, 0.398071, 0.856934, -0.370361, 5.737307, -7.507326, -5.737307
1035770, 0.378540, 0.852905, -0.387939, 6.469728, -9.582520, -6.225588
1035790, 0.361206, 0.858032, -0.395630, 6.347658, -11.230473, -6.835939
1035810, 0.310791, 0.873291, -0.390869, 6.347658, -12.512211, -5.310059
1035830, 0.282349, 0.890381, -0.400513, 7.751467, -9.582520, -0.305176
1035850, 0.280518, 0.875366, -0.411133, 8.605957, -6.225588, 4.272461
1035870, 0.304443, 0.850220, -0.435669, 8.300781, -1.525879, 8.300781
1035890, 0.327881, 0.837769, -0.447754, 5.371094, 2.380371, 8.422852
1035910, 0.340820, 0.826660, -0.452148, 2.929688, 3.356935, 6.530764
1035930, 0.352295, 0.820190, -0.441528, 1.159668, 2.563477, 4.943848
1035950, 0.343994, 0.831055, -0.438843, -0.244141, 5.187988, 2.319336
1035970, 0.342651, 0.842163, -0.442017, -0.671387, 6.469728, 0.793457
1035990, 0.316406, 0.838257, -0.458740, -2.502441, 5.676271, -2.319336
1036010, 0.314453, 0.845459, -0.455200, -4.821777, 8.056641, -0.427246
1036030, 0.337891, 0.859985, -0.423218, -6.469728, 14.831547, 3.356935
1036050, 0.376343, 0.882690, -0.383301, -4.028320, 20.080566, 6.835939
1036070, 0.433716, 0.867310, -0.363403, 0.366211, 17.395020, 5.065918
1036090, 0.466187, 0.848633, -0.367432, 4.028320, 7.568361, -1.342773
1036110, 0.471802, 0.868164, -0.369751, 7.934572, 2.319336, -11.962894
1036130, 0.430298, 0.828613, -0.373535, 10.314941, -14.404301, -18.493652
1036150, 0.362671, 0.818970, -0.392822, 9.094238, -20.690918, -16.662598
1036170, 0.318604, 0.823486, -0.417969, 6.164553, -18.432617, -10.803223
1036190, 0.297607, 0.829468, -0.421143, 0.305176, -3.234864, 0.671387
1036210, 0.346191, 0.852661, -0.386475, -0.305176, 3.295899, 5.310059
1036230, 0.394531, 0.887817, -0.370239, 4.760742, 2.136230, 4.028320
1036250, 0.425537, 0.866821, -0.396240, 8.361816, -5.371094, -1.159668
1036270, 0.397705, 0.870605, -0.411011, 9.643555, 1.831055, -7.812502
1036290, 0.376221, 0.867310, -0.436768, 10.253906, -11.169437, -8.544922
1036310, 0.359985, 0.846802, -0.442505, 8.789063, -18.432617, -7.385256
1036330, 0.334106, 0.832886, -0.423706, 6.530764, -15.686039, -8.361816
1036350, 0.321411, 0.820435, -0.408813, 6.713869, -9.216309, -10.620117
1036370, 0.268677, 0.809082, -0.437500, 5.615236, -4.516602, -4.943848
1036390, 0.358765, 0.804565, -0.468384, 3.723145, -21.179199, 3.234864
1036410, 0.314697, 0.824463, -0.474854, -2.075195, -13.244633, 1.892090
1036430, 0.345581, 0.857422, -0.446777, -1.953125, -8.300781, 0.427246
1036450, 0.371948, 0.875854, -0.421143, 2.441406, -6.103518, -2.441406
1036470, 0.431763, 0.872559, -0.453369, 8.728027, -18.676758, -6.835939
1036490, 0.383667, 0.846558, -0.488525, 9.704590, -29.052742, -11.291508
1036510, 0.328247, 0.818481, -0.497192, 7.202150, -33.325195, -14.160160
1036530, 0.280151, 0.825073, -0.476318, 4.394531, -27.038582, -14.404301
1036550, 0.303101, 0.838867, -0.450317, 5.432129, -24.047859, -16.723633
1036570, 0.280273, 0.827271, -0.473877, 6.958010, -29.418953, -16.296387
1036590, 0.237427, 0.822998, -0.493042, 4.638672, -30.639656, -13.488773
1036610, 0.236084, 0.820801, -0.480591, 2.563477, -23.986824, -12.329105
1036630, 0.207520, 0.835815, -0.482788, 2.624512, -20.324707, -11.413578
1036650, 0.203125, 0.843140, -0.485107, 3.295899, -11.596684, -10.009766
1036670, 0.229614, 0.847778, -0.485474, 3.967286, -9.826660, -7.263186
1036690, 0.236816, 0.855713, -0.496826, 5.187988, -10.498047, -6.896975
1036710, 0.244385, 0.851074, -0.510498, 5.249023, -12.939457, -5.798342
1036730, 0.255615, 0.854736, -0.511597, 4.943848, -15.930180, -6.713869
1036750, 0.229614, 0.836548, -0.513672, 4.028320, -18.188477, -8.422852
1036770, 0.190674, 0.830566, -0.518799, 2.441406, -17.761230, -5.004883
1036790, 0.183594, 0.832397, -0.495117, 0.854492, -10.925293, -0.610352
1036810, 0.204712, 0.844604, -0.487183, 1.892090, -3.784181, 1.892090
1036830, 0.208740, 0.841553, -0.500610, 2.258301, -2.929688, 4.577637
1036850, 0.197144, 0.835083, -0.515015, 0.488281, -2.746582, 8.972168
1036870, 0.191284, 0.818237, -0.503906, -2.929688, 2.197266, 13.610844
1036890, 0.189209, 0.809814, -0.487671, -5.432129, 12.268070, 16.845703
1036910, 0.200439, 0.812744, -0.482178, -6.958010, 21.484375, 19.226074
1036930, 0.238525, 0.814209, -0.481445, -7.995607, 25.878914, 17.700195
1036950, 0.243042, 0.808960, -0.505249, -9.826660, 21.911621, 16.723633
1036970, 0.221680, 0.803223, -0.507568, -12.756351, 27.099617, 15.380863
1036990, 0.206299, 0.827148, -0.499023, -14.343266, 32.104492, 18.066406
1037010, 0.225952, 0.862427, -0.484497, -12.146000, 36.376953, 19.592285
1037030, 0.313477, 0.862061, -0.466309, -8.728027, 34.851074, 16.784668
1037050, 0.369995, 0.851440, -0.468628, -4.394531, 29.357918, 7.934572
1037070, 0.355103, 0.833984, -0.508911, -4.455566, 10.437012, 0.732422
1037090, 0.333496, 0.822021, -0.551636, -11.108402, 6.530764, -7.751467
1037110, 0.305176, 0.830933, -0.526733, -18.737793, -2.319336, -10.620117
1037130, 0.277222, 0.842163, -0.405396, -20.446777, -4.760742, -11.901859
1037150, 0.252319, 0.848633, -0.359619, -15.258793, -1.281738, -10.864258
1037170, 0.252197, 0.870483, -0.363770, -9.582520, 5.004883, -6.469728
1037210, 0.309448, 0.906738, -0.418579, -5.493164, 4.577637, 1.586915
1037230, 0.315186, 0.895386, -0.430054, -6.103518, 0.244141, 1.525879
1037250, 0.317139, 0.886108, -0.424072, -7.141115, -6.225588, 1.525879
1037270, 0.292725, 0.960327, -0.402222, -0.610352, -15.930180, 3.723145
1037290, 0.297974, 0.873291, -0.406860, 2.380371, -12.634281, 4.577637
1037310, 0.311157, 0.853516, -0.448608, -0.366211, -8.911133, 1.892090
1037330, 0.299561, 0.861328, -0.454346, -3.173829, -13.793949, 2.380371
1037350, 0.283203, 0.865723, -0.446167, -5.493164, -16.723633, 3.723145
1037370, 0.272095, 0.871826, -0.419800, -6.530764, -13.183598, 4.821777
1037390, 0.270874, 0.879761, -0.389282, -4.699707, -6.958010, 5.187988
1037410, 0.272461, 0.878296, -0.395386, -2.014160, -4.211426, 6.713869
1037430, 0.286621, 0.869995, -0.415527, -1.037598, -4.516602, 8.422852
1037450, 0.301392, 0.866943, -0.410278, -0.793457, -9.460449, 9.582520
1037470, 0.312744, 0.873901, -0.413574, 0.000000, -7.385256, 9.399414
1037490, 0.322021, 0.869263, -0.403320, 1.098633, -7.141115, 7.629396
1037510, 0.313599, 0.869995, -0.406860, 3.723145, -3.906251, 5.004883
1037530, 0.330688, 0.856567, -0.434326, 3.784181, -3.295899, 3.479005
1037550, 0.328613, 0.849609, -0.456055, 1.525879, -7.568361, 2.441406
1037570, 0.322266, 0.851807, -0.454956, -1.281738, -7.507326, 1.159668
1037590, 0.299805, 0.854248, -0.434937, -2.929688, -9.277344, 1.037598
1037610, 0.275146, 0.866699, -0.418823, -2.807618, -4.089355, 2.136230
1037630, 0.222900, 0.847412, -0.416260, -1.342773, -0.549316, 8.850098
1037650, 0.227783, 0.861450, -0.411133, 0.000000, 7.934572, 16.723633
1037670, 0.283569, 0.864624, -0.412354, 1.403809, 15.563969, 19.287109
1037690, 0.331055, 0.859253, -0.437500, 2.929688, 10.925293, 16.784668
1037710, 0.358276, 0.849609, -0.446655, 2.563477, 3.723145, 14.648441
1037730, 0.367310, 0.846680, -0.434937, 4.028320, -3.051759, 12.023930
1037750, 0.381104, 0.851196, -0.429199, 7.629396, -8.300781, 7.141115
1037770, 0.337769, 0.840210, -0.462646, 8.056641, 1.220703, 1.464844
1037790, 0.303589, 0.829224, -0.475342, 5.432129, 7.751467, 0.854492
1037810, 0.301025, 0.836304, -0.446289, 4.089355, 10.070801, 3.295899
1037830, 0.330811, 0.845703, -0.427124, 5.432129, 11.108402, 4.699707
1037850, 0.360229, 0.842529, -0.419067, 7.873537, 7.263186, 4.333496
1037870, 0.376343, 0.838623, -0.432861, 8.239746, 9.277344, 2.868653
1037890, 0.378296, 0.829590, -0.440552, 7.385256, 2.441406, 1.281738
1042230, 0.296509, 0.887085, -0.400879, -4.028320, 0.610352, -1.464844
1042250, 0.279785, 0.877808, -0.426270, -6.408693, -10.803223, -3.173829
1042270, 0.237793, 0.895996, -0.422119, -9.460449, -9.765625, -2.258301
1042290, 0.223389, 0.886597, -0.375000, -9.643555, -3.051759, -1.525879
1042310, 0.231567, 0.889038, -0.406006, -9.277344, 5.798342, -0.244141
1042330, 0.351318, 0.890137, -0.401367, -12.207035, 1.953125, -1.831055
1042350, 0.318604, 0.895264, -0.366577, -10.803223, -10.620117, -7.202150
1042370, 0.252197, 0.882690, -0.428223, -12.146000, -13.854984, -7.202150
1042390, 0.230835, 0.898926, -0.381470, -13.671879, -13.427738, -6.774904
1042410, 0.204956, 0.943726, -0.251953, 1.831055, -15.380863, -7.080080
1042430, 0.181396, 0.916504, -0.379761, 21.606445, -12.146000, -9.521484
1042450, 0.170044, 0.890381, -0.439575, 27.648933, -8.483887, -10.375977
1042470, 0.101074, 0.878418, -0.489624, 23.986824, -5.493164, -7.629396
1042490, 0.064819, 0.903931, -0.449097, 17.089844, 3.784181, -3.723145
1042510, 0.036011, 0.945801, -0.359863, 15.502934, 23.620613, -2.319336
1042530, 0.062256, 0.985596, -0.265137, 22.888191, 52.368179, -9.826660
1042550, 0.096069, 0.969849, -0.252075, 37.780762, 64.453125, -18.615723
1042570, 0.153809, 0.924561, -0.381592, 36.193848, 70.678711, -19.348145
1042590, 0.200684, 0.928833, -0.367432, 23.742683, 74.157715, -14.038090
1042610, 0.258423, 0.965454, -0.313965, 18.554688, 72.570801, -16.113281
1042630, 0.375732, 0.996338, -0.321167, 9.582520, 74.768066, -39.184570
1042650, 0.446533, 0.932617, -0.334717, 0.305176, 70.800781, -63.171402
1042670, 0.422729, 0.884033, -0.304199, -7.141115, 65.490723, -61.218277
1042690, 0.496582, 0.839233, -0.288940, -14.465336, 44.250504, -48.522964
1042710, 0.590698, 0.853027, -0.339111, -17.028809, 0.366211, -32.287598
1042730, 0.580322, 0.816284, -0.415039, -33.813477, 0.366211, -29.479988
1042750, 0.575195, 0.833496, -0.338135, -36.804199, -29.663094, -23.071297
1042770, 0.496704, 0.833130, -0.361572, -32.653809, -59.509293, -9.826660
1042790, 0.386597, 0.838013, -0.380981, -25.817879, -56.396500, -0.793457
1042810, 0.281372, 0.839844, -0.401611, -9.094238, -56.335464, 18.920898
1042830, 0.264404, 0.851318, -0.484985, -2.136230, -57.739273, 20.751953
1042850, 0.194946, 0.875732, -0.489746, 2.624512, -61.157242, 20.385742
1042870, 0.061523, 0.864014, -0.507080, 9.826660, -60.852066, 19.226074
1042890, -0.029297, 0.885010, -0.566895, 6.103518, -55.847183, 22.338875
1042910, -0.097168, 0.929688, -0.502075, 0.976563, -37.536621, 24.536140
1042930, -0.032593, 0.942383, -0.478149, -3.784181, -31.188972, 17.883301
1042950, -0.058228, 0.947021, -0.410034, -7.507326, -20.080566, 9.521484
1042970, -0.050049, 0.961914, -0.373779, -11.230473, -15.075687, 8.422852
1042990, -0.063599, 0.984253, -0.277954, -14.526371, -6.408693, 10.803223
1043010, -0.023682, 0.997803, -0.218140, -15.197758, 22.705086, 23.376472
1043030, 0.046143, 0.988037, -0.178711, -17.150879, 36.132813, 26.855476
1043050, 0.029785, 1.046387, 0.152954, 9.277344, 40.527344, 39.611816
1043070, 0.003418, 1.020752, 0.127808, 53.649918, 44.799820, 56.762711
1043090, 0.251831, 0.938110, -0.496338, 52.551285, 53.710953, 53.344742
1043110, 0.552734, 0.918213, -0.664429, -2.075195, 48.645035, 18.737793
1043130, 0.476929, 1.024292, -0.233032, -18.798828, 3.295899, -13.000492
1043150, 0.342285, 1.000977, -0.294800, -22.521980, -18.859863, -37.536621
1043170, 0.203491, 0.989136, -0.269287, -32.897949, -19.409180, -53.405777
1043190, 0.063843, 0.970459, -0.181030, -37.170410, -13.549809, -54.565445
1043210, 0.089355, 0.968140, -0.188721, -34.790039, -15.502934, -48.156754
1043230, 0.148193, 0.917236, -0.241577, -34.301758, -16.784668, -40.649414
1043250, 0.115234, 0.934692, -0.150879, -16.784668, -6.958010, -24.169930
1043270, 0.138184, 0.942139, -0.236572, 0.366211, 4.516602, -9.216309
1043290, 0.251465, 0.884644, -0.394531, 5.432129, 16.845703, -7.019045
1043310, 0.286743, 0.883789, -0.354980, 14.526371, 19.409180, 4.943848
1043330, 0.300903, 0.853149, -0.389404, 28.991707, 7.568361, 19.226074
1043350, 0.393555, 0.810059, -0.532349, 32.287598, -12.756351, 31.066902
1043370, 0.423462, 0.827026, -0.508789, 29.785164, -8.056641, 24.292000
1043390, 0.331787, 0.842407, -0.446289, 50.903336, -3.601075, 22.399910
1043410, 0.368774, 0.788818, -0.796021, 28.686531, 7.629396, 10.986328
1043430, 0.408447, 0.836060, -0.643677, -3.112794, 0.671387, -1.525879
1043450, 0.388184, 0.866943, -0.524414, -18.615723, -10.192871, -13.671879
1043470, 0.333740, 0.886353, -0.446777, -29.785164, -12.023930, -25.268562
1043490, 0.224854, 0.917969, -0.333984, -32.348633, -11.962894, -31.433113
1043510, 0.118408, 0.944580, -0.251831, -27.526863, -11.596684, -28.259285
1043530, 0.078857, 0.962280, -0.205566, -18.432617, -5.065918, -21.789551
1043550, 0.086670, 0.975220, -0.178711, -6.591799, -0.610352, -14.526371
1043570, 0.132813, 0.970703, -0.202637, 11.596684, 4.760742, -9.033203
1043590, 0.131348, 0.950806, -0.272217, 19.226074, 6.530764, -6.469728
1043610, 0.117554, 0.932617, -0.335815, 21.118164, 5.432129, -2.380371
1043630, 0.129395, 0.922119, -0.373535, 19.958496, 6.835939, 0.915528
1043650, 0.141846, 0.911743, -0.413330, 15.930180, 7.324221, 3.601075
1043670, 0.137329, 0.909668, -0.416504, 10.437012, 8.300781, 5.798342
1043690, 0.155884, 0.910522, -0.415527, 5.737307, 9.948730, 8.178711
1043710, 0.190674, 0.912354, -0.402100, 1.098633, 9.887695, 8.544922
1043730, 0.216309, 0.921509, -0.368286, -0.671387, 6.164553, 7.385256
1043750, 0.225098, 0.924805, -0.347046, -1.037598, 5.371094, 4.150391
1043770, 0.214844, 0.920776, -0.364014, 0.854492, 2.746582, 1.403809
1043790, 0.227539, 0.906006, -0.419678, -2.746582, 0.610352, -1.098633
1043810, 0.226929, 0.916870, -0.384399, -7.324221, -0.915528, -4.150391
1043830, 0.211304, 0.924805, -0.350952, -7.690432, -2.197266, -6.530764
1043850, 0.180908, 0.922241, -0.363403, -8.544922, -2.502441, -7.019045
1043870, 0.172485, 0.928833, -0.344238, -9.338379, -2.380371, -6.286623
1043890, 0.170898, 0.933716, -0.324463, -8.239746, -2.014160, -5.554201
1043910, 0.178955, 0.937500, -0.318481, -6.591799, -3.173829, -5.004883
1043930, 0.164917, 0.938721, -0.314575, -4.882813, -3.051759, -4.882813
1043950, 0.156494, 0.942627, -0.314209, -1.159668, -2.258301, -2.624512
1043970, 0.175415, 0.932495, -0.335205, -0.732422, -2.014160, -2.075195
1043990, 0.192139, 0.937988, -0.321777, -0.183106, -3.540040, -2.929688
1044010, 0.180420, 0.936035, -0.336914, 0.488281, -4.516602, -4.150391
1044030, 0.166138, 0.931519, -0.350830, -0.549316, -4.089355, -4.455566
1044050, 0.152222, 0.932861, -0.335693, -1.281738, -3.723145, -3.723145
