timestamp,ax,ay,az,gx,gy,gz
1473694, 0.385254, 0.877197, -0.327881, 1.647950, -0.183106, 1.098633
1473714, 0.389526, 0.864136, -0.334229, 2.258301, 0.549316, 0.671387
1473734, 0.400513, 0.861206, -0.345825, 1.708985, 0.000000, 0.122070
1473754, 0.395752, 0.860718, -0.346558, 0.854492, -0.122070, -0.976563
1473774, 0.389893, 0.864868, -0.344482, 0.061035, -0.488281, -1.098633
1473794, 0.377808, 0.868530, -0.332764, 0.000000, -0.793457, -0.610352
1473814, 0.381470, 0.867920, -0.328125, 0.610352, -0.427246, -0.183106
1473834, 0.383423, 0.867432, -0.329834, 1.281738, -0.549316, 0.183106
1473854, 0.381104, 0.865601, -0.335815, 1.586915, -0.793457, 0.549316
1473874, 0.376343, 0.866211, -0.332642, 1.708985, -0.915528, 1.098633
1473894, 0.379761, 0.863647, -0.344360, 1.708985, -0.183106, 1.770020
1473914, 0.387207, 0.861694, -0.351563, 0.793457, 0.671387, 1.892090
1473934, 0.387817, 0.862061, -0.344971, -0.061035, 1.098633, 1.831055
1473954, 0.393433, 0.862671, -0.343506, -0.671387, 0.793457, 1.892090
1473974, 0.399292, 0.861572, -0.342041, -1.159668, -0.244141, 1.098633
1473994, 0.392700, 0.864990, -0.333984, -1.281738, -0.793457, 0.732422
1474014, 0.386108, 0.865479, -0.331909, -1.098633, -0.671387, 0.915528
1474034, 0.377930, 0.866699, -0.333130, -0.732422, -0.366211, 1.831055
1474054, 0.391968, 0.863892, -0.334229, -0.610352, -1.159668, 2.563477
1474074, 0.375977, 0.862061, -0.344116, -1.037598, -2.197266, 3.540040
1474094, 0.388306, 0.861694, -0.338745, -1.708985, 0.000000, 4.272461
1474134, 0.422729, 0.859985, -0.336426, -2.380371, -0.061035, 2.563477
1474154, 0.431763, 0.862305, -0.331055, -2.380371, -2.441406, -0.183106
1474174, 0.410034, 0.862061, -0.332397, -2.990724, -7.080080, -0.488281
1474194, 0.383179, 0.862671, -0.339355, -3.112794, -6.958010, -1.403809
1474214, 0.347656, 0.859009, -0.356567, -4.516602, -3.112794, 1.281738
1474234, 0.409302, 0.852539, -0.366577, -7.080080, -2.746582, 2.502441
1474254, 0.393799, 0.850830, -0.383911, -11.901859, -5.676271, 1.892090
1474274, 0.399658, 0.859497, -0.345215, -15.075687, -5.187988, 2.380371
1474294, 0.404297, 0.868652, -0.314575, -15.808109, -2.990724, 1.098633
1474314, 0.408325, 0.865967, -0.314697, -15.380863, -4.577637, 0.732422
1474334, 0.397461, 0.873291, -0.298584, -15.441898, -5.126953, 0.122070
1474354, 0.382935, 0.881714, -0.274048, -12.451176, -6.225588, 1.525879
1474374, 0.389893, 0.885620, -0.252441, -8.666992, -4.821777, 1.892090
1474394, 0.380371, 0.890259, -0.249023, -4.699707, -3.173829, 2.563477
1474414, 0.397217, 0.887451, -0.258179, -1.098633, -5.432129, 3.662110
1474434, 0.383057, 0.883423, -0.267700, 1.708985, -4.943848, 3.723145
1474454, 0.368164, 0.880249, -0.281372, 3.601075, -2.441406, 5.432129
1474474, 0.373413, 0.874512, -0.295166, 4.394531, 0.122070, 7.568361
1474494, 0.390015, 0.869141, -0.305176, 4.638672, 2.868653, 8.544922
1474514, 0.439819, 0.864136, -0.321045, 3.173829, 2.319336, 7.812502
1474534, 0.476929, 0.863892, -0.308228, 1.953125, -0.305176, 3.845216
1474554, 0.474609, 0.857300, -0.327881, 0.183106, -4.516602, -5.371094
1474574, 0.493042, 0.860718, -0.321411, -1.708985, -7.995607, -11.047363
1474594, 0.449219, 0.863403, -0.329102, -3.967286, -13.977055, -16.113281
1474614, 0.416504, 0.877441, -0.291016, -4.882813, -16.662598, -17.089844
1474634, 0.244019, 0.868164, -0.344116, -5.920412, -20.874023, -13.000492
1474654, 0.313843, 0.887573, -0.281128, -6.042482, -9.460449, -4.577637
1474674, 0.259644, 0.881348, -0.319214, -5.859377, -6.103518, 2.136230
1474694, 0.334839, 0.882080, -0.309692, -6.225588, 3.723145, 7.507326
1474714, 0.446045, 0.864380, -0.345581, -9.033203, 7.568361, 5.920412
1474734, 0.478394, 0.888672, -0.225220, -5.981447, -5.737307, -5.004883
1474754, 0.327515, 0.884399, -0.291504, -0.244141, 2.746582, -2.868653
1474774, 0.438354, 0.906372, -0.255005, 4.394531, -7.507326, -4.455566
1474794, 0.370972, 0.889771, -0.296753, 10.437012, -3.051759, -9.765625
1474814, 0.395386, 0.871216, -0.338013, 7.324221, -5.126953, -10.070801
1474834, 0.340698, 0.876099, -0.333618, 3.784181, -4.394531, -9.765625
1474854, 0.314209, 0.894043, -0.310059, 3.234864, -4.150391, -6.835939
1474874, 0.308594, 0.904297, -0.297607, 8.239746, -2.380371, -5.615236
1474894, 0.308472, 0.908691, -0.315796, 14.648441, -1.953125, -7.446291
1474914, 0.297729, 0.884033, -0.371338, 15.441898, -2.075195, -7.812502
1474934, 0.224365, 0.877930, -0.362549, 8.239746, 14.221195, -0.610352
1474974, 0.322021, 0.899780, -0.292480, 6.958010, 32.592773, 8.605957
1474994, 0.389160, 0.910034, -0.276245, 12.451176, 32.470703, 5.126953
1475014, 0.396118, 0.876343, -0.304688, 13.610844, 32.775879, 1.342773
1475034, 0.408569, 0.881226, -0.280029, 11.901859, 26.062019, 3.173829
1475054, 0.377075, 0.871338, -0.286133, 9.216309, 23.498543, 7.263186
1475074, 0.378662, 0.854858, -0.291870, 5.371094, 24.414070, 10.986328
1475094, 0.429932, 0.859253, -0.267334, 1.708985, 23.437508, 16.906738
1475114, 0.483643, 0.860840, -0.242676, 2.990724, 21.606445, 17.761230
1475134, 0.533447, 0.875854, -0.259644, 7.629396, 17.089844, 8.117676
1475154, 0.517700, 0.844604, -0.287476, 7.263186, 12.451176, 1.953125
1475174, 0.484985, 0.834229, -0.272583, 5.493164, 9.948730, 3.112794
1475194, 0.477783, 0.848511, -0.291870, 4.821777, 4.760742, 3.173829
1475214, 0.439697, 0.861084, -0.287109, 5.004883, 4.577637, 1.647950
1475234, 0.451538, 0.870483, -0.289795, 6.958010, 6.408693, -0.671387
1475254, 0.445557, 0.864746, -0.318848, 7.629396, 6.652834, -5.187988
1475274, 0.424805, 0.883545, -0.307617, 8.422852, 5.371094, -9.887695
1475294, 0.407227, 0.881226, -0.312256, 10.864258, 4.028320, -15.502934
1475314, 0.354858, 0.897705, -0.301270, 11.962894, 8.056641, -14.160160
1475334, 0.328979, 0.879395, -0.323364, 12.695316, 14.709476, -14.953617
1475354, 0.338013, 0.883789, -0.299438, 12.329105, 20.080566, -12.878422
1475374, 0.418335, 0.908813, -0.300781, 13.671879, 14.770512, -14.282230
1475394, 0.419678, 0.894897, -0.304443, 15.136723, 11.718754, -19.226074
1475414, 0.409912, 0.876221, -0.318481, 14.404301, 8.117676, -25.268562
1475434, 0.361572, 0.888550, -0.309082, 11.718754, 8.544922, -26.794441
1475454, 0.301392, 0.884766, -0.265015, 12.390141, 15.625004, -23.681648
1475474, 0.301270, 0.893555, -0.270020, 13.610844, 23.193367, -16.784668
1475494, 0.453491, 0.893066, -0.309692, 8.544922, 29.052742, -22.583015
1475514, 0.505859, 0.898560, -0.248657, 6.958010, 23.254402, -30.334480
1475534, 0.542358, 0.899658, -0.237549, 9.704590, 7.690432, -39.550781
1475554, 0.508301, 0.875610, -0.301880, 7.934572, -5.065918, -50.964371
1475574, 0.433594, 0.849976, -0.325439, 1.647950, -9.643555, -54.016129
1475594, 0.390869, 0.840210, -0.289185, -2.441406, -13.916019, -48.828140
1475614, 0.339355, 0.878662, -0.283691, -0.732422, -12.023930, -41.137695
1475634, 0.332520, 0.870361, -0.329956, -4.760742, -10.253906, -34.240723
1475654, 0.315552, 0.893921, -0.301025, -11.291508, -4.333496, -29.235847
1475674, 0.288086, 0.882568, -0.321167, -13.549809, 0.183106, -23.132332
1475694, 0.338501, 0.873291, -0.330322, -17.150879, 3.784181, -11.047363
1475714, 0.303833, 0.883667, -0.333740, -18.737793, 2.929688, -6.774904
1475734, 0.338379, 0.873901, -0.366211, -20.874023, -5.554201, 4.089355
1475754, 0.417847, 0.877197, -0.365967, -21.057129, 1.220703, -2.624512
1475774, 0.320557, 0.884277, -0.372681, -20.507813, -2.441406, -2.990724
1475794, 0.310059, 0.895142, -0.365845, -21.484375, -6.713869, -0.854492
1475814, 0.292847, 0.883057, -0.353027, -21.057129, -13.549809, 2.258301
1475834, 0.304321, 0.900024, -0.344604, -18.493652, -27.038582, 6.225588
1475854, 0.270264, 0.906616, -0.298462, -13.427738, -29.357918, 13.793949
1475874, 0.230225, 0.927002, -0.321533, -2.075195, -34.362793, 15.869144
1475894, 0.237671, 0.930298, -0.364624, 0.793457, -35.766602, 13.061527
1475914, 0.232788, 0.909546, -0.350830, -0.061035, -34.545898, 9.887695
1475934, 0.204468, 0.935791, -0.342407, -1.647950, -29.602058, 8.178711
1475954, 0.120972, 0.927612, -0.322876, -2.685547, -18.493652, 10.009766
1475974, 0.083252, 0.936401, -0.307373, -3.112794, -4.333496, 16.540527
1475994, 0.156250, 0.941772, -0.329590, -3.479005, -0.488281, 22.583015
1476014, 0.180176, 0.941162, -0.285278, -3.601075, 0.793457, 24.292000
1476034, 0.214966, 0.955566, -0.226440, 0.732422, -2.929688, 27.893074
1476054, 0.246338, 0.959106, -0.299316, -0.122070, -5.798342, 21.789551
1476074, 0.261963, 0.955200, -0.243408, -8.056641, -12.695316, 16.418457
1476094, 0.196289, 0.953247, -0.233276, -10.437012, -17.944336, 12.756351
1476114, 0.162720, 0.989502, -0.129883, -10.620117, 3.845216, 16.906738
1476134, 0.172729, 0.960815, -0.218140, -11.413578, -7.690432, 21.423340
1476154, 0.194946, 0.980835, -0.030518, -2.258301, 4.699707, 26.977547
1476174, 0.154785, 0.963623, -0.046631, 20.202637, 8.361816, 39.306641
1476194, 0.233032, 0.910156, -0.194214, 30.822762, 13.366703, 50.781265
1476214, 0.319702, 0.907349, -0.290649, 27.038582, 17.272949, 55.725113
1476234, 0.527588, 0.910889, -0.441406, 5.676271, 16.601563, 33.996582
1476254, 0.472046, 0.948486, -0.220581, -7.385256, -4.821777, 4.516602
1476274, 0.408447, 0.958496, -0.237549, -9.033203, -12.084965, -8.361816
1476294, 0.290894, 0.961548, -0.229492, -10.681152, -12.268070, -16.357422
1476314, 0.323608, 0.948486, -0.264160, -16.601563, -15.625004, -25.146492
1476334, 0.172607, 0.959351, -0.116333, -11.413578, -13.122562, -18.920898
1476354, 0.165649, 0.970337, -0.142456, -2.014160, -5.065918, -8.728027
1476374, 0.230347, 0.954102, -0.263550, -4.699707, 8.544922, -9.277344
1476394, 0.261719, 0.943115, -0.221802, -8.483887, 14.953617, -8.239746
1476414, 0.323730, 0.943237, -0.177368, -5.371094, 15.258793, -9.277344
1476434, 0.315918, 0.927124, -0.194702, 0.976563, 17.639160, -9.643555
1476454, 0.313110, 0.902344, -0.248657, 4.821777, 27.526863, -5.371094
1476474, 0.374512, 0.857178, -0.272705, 3.723145, 33.203125, 0.488281
1476494, 0.482056, 0.853271, -0.261963, 7.385256, 26.000984, 6.591799
1476514, 0.534180, 0.838623, -0.344727, 6.469728, 23.925789, 0.427246
1476534, 0.537354, 0.840820, -0.370483, 1.098633, 22.583015, -6.591799
1476554, 0.611206, 0.797485, -0.347778, -3.417970, 13.977055, -10.131836
1476574, 0.639404, 0.782593, -0.296509, -1.831055, -5.432129, -9.582520
1476594, 0.579834, 0.777832, -0.287720, 4.028320, -18.310547, -3.845216
1476614, 0.491333, 0.805664, -0.315552, 11.413578, -16.845703, 3.173829
1476634, 0.549316, 0.819946, -0.489624, 7.080080, -1.586915, 5.065918
1476654, 0.635010, 0.808350, -0.584229, -20.385742, -2.746582, -15.991215
1476674, 0.568115, 0.855957, -0.376099, -40.039063, -13.305668, -34.301758
1476694, 0.473022, 0.890625, -0.233276, -45.043961, -23.986824, -46.142593
1476714, 0.400269, 0.911011, -0.176758, -43.334961, -23.254402, -54.321304
1476734, 0.446289, 0.896240, -0.230957, -42.175293, -6.958010, -66.772461
1476754, 0.322144, 0.922485, -0.149414, -45.166031, -15.075687, -77.575684
1476774, 0.101074, 0.975220, -0.006714, -34.912109, -28.564461, -68.054199
1476794, -0.016113, 0.997559, -0.003296, -20.751953, -27.160652, -51.208511
1476814, -0.070068, 1.001831, -0.039063, -8.239746, -14.648441, -31.372078
1476834, 0.030273, 0.978638, -0.149292, 0.915528, -3.051759, -5.126953
1476854, 0.129639, 0.963379, -0.201294, -1.098633, 0.244141, 2.990724
1476894, 0.218140, 0.979370, -0.132324, -2.197266, 0.488281, 3.112794
