timestamp,ax,ay,az,gx,gy,gz
620101, 0.632080, 0.757080, -0.172729, 4.516602, 9.643555, -6.286623
620121, 0.627075, 0.773926, -0.166504, 4.150391, 6.286623, -5.859377
620141, 0.625366, 0.786377, -0.174805, 3.662110, 2.563477, -8.239746
620161, 0.598022, 0.786865, -0.172363, 3.906251, -1.098633, -8.972168
620181, 0.592896, 0.805176, -0.177368, 3.662110, -0.061035, -9.521484
620201, 0.576050, 0.790161, -0.174194, 2.807618, 0.793457, -9.094238
620221, 0.559326, 0.803711, -0.172729, 1.953125, 1.586915, -6.774904
620241, 0.583374, 0.809692, -0.171875, 1.342773, 6.591799, -7.629396
620261, 0.583862, 0.795288, -0.165161, 0.549316, 6.591799, -8.850098
620281, 0.566284, 0.813843, -0.149536, 0.671387, 6.469728, -6.652834
620301, 0.596069, 0.800537, -0.165039, 0.488281, 11.108402, -9.582520
620321, 0.601074, 0.796509, -0.173218, -0.671387, 13.916019, -12.146000
620341, 0.595215, 0.791992, -0.158203, -0.061035, 9.643555, -9.094238
620361, 0.613770, 0.786255, -0.165527, -1.770020, 8.666992, -10.009766
620401, 0.589844, 0.790283, -0.125122, -2.075195, -1.098633, -9.216309
620441, 0.604004, 0.779907, -0.140747, 2.075195, -8.666992, -2.624512
620461, 0.616333, 0.782593, -0.165894, 1.831055, -8.911133, -2.441406
620481, 0.613159, 0.785522, -0.166504, 0.183106, -8.483887, -3.662110
620501, 0.622314, 0.779419, -0.181763, -0.915528, -8.728027, -5.432129
620521, 0.600342, 0.781372, -0.169922, -2.014160, -11.901859, -3.601075
620541, 0.599365, 0.778198, -0.187866, -3.662110, -7.446291, -4.943848
620561, 0.600098, 0.785767, -0.176270, -3.784181, -10.314941, -3.356935
620581, 0.595337, 0.787720, -0.189941, -3.967286, -6.958010, -4.211426
620601, 0.594360, 0.790161, -0.189087, -4.760742, -3.967286, -4.760742
620621, 0.609375, 0.786255, -0.196655, -6.591799, -4.882813, -5.676271
620641, 0.588257, 0.790771, -0.180908, -6.774904, -9.033203, -5.249023
620661, 0.580200, 0.795776, -0.179810, -6.408693, -9.704590, -4.089355
620681, 0.561279, 0.798584, -0.186890, -5.432129, -7.751467, -4.577637
620701, 0.568604, 0.807495, -0.170898, -4.211426, -8.178711, -2.868653
620721, 0.568359, 0.803345, -0.197144, -1.525879, -7.385256, -2.258301
620741, 0.558105, 0.805664, -0.207275, -2.319336, -6.896975, -2.319336
620761, 0.538940, 0.812256, -0.192871, -0.671387, -8.911133, -0.854492
620781, 0.525879, 0.808838, -0.220581, 1.647950, -6.225588, 0.854492
620821, 0.563721, 0.804321, -0.224243, -2.685547, 7.263186, 0.122070
620841, 0.578369, 0.812012, -0.188721, -5.432129, 6.591799, -1.220703
620861, 0.571045, 0.819702, -0.156860, -5.126953, 4.638672, -2.075195
620881, 0.556030, 0.821899, -0.147339, -3.784181, 2.929688, -2.197266
620901, 0.550293, 0.822632, -0.147583, -0.854492, 0.976563, -0.793457
620921, 0.556030, 0.820923, -0.156982, 0.183106, -1.281738, -0.061035
620941, 0.553101, 0.819458, -0.164063, 0.488281, -1.708985, 0.305176
620961, 0.556030, 0.819336, -0.170288, 0.488281, -0.915528, 0.488281
621001, 0.555542, 0.817627, -0.170044, -0.488281, -0.854492, 0.122070
621061, 0.553833, 0.818726, -0.164673, -0.915528, 0.793457, 0.549316
621081, 0.559204, 0.820190, -0.157349, -0.732422, 0.610352, 0.854492
621101, 0.567627, 0.817993, -0.156860, 0.183106, -0.976563, 0.610352
621121, 0.570435, 0.818115, -0.160767, 0.671387, -1.403809, -0.183106
621181, 0.554810, 0.817749, -0.174927, -1.220703, 0.000000, -1.159668
621201, 0.554932, 0.819092, -0.163696, -1.770020, 0.244141, -0.915528
621221, 0.553589, 0.821899, -0.151245, -1.098633, 0.488281, -0.488281
621241, 0.556885, 0.821411, -0.155151, -0.427246, -0.183106, -0.122070
621261, 0.558472, 0.821655, -0.148804, 0.305176, -1.342773, 0.122070
621281, 0.561890, 0.818726, -0.158936, 1.281738, -2.014160, 0.122070
621301, 0.557373, 0.818604, -0.165283, 1.342773, -2.441406, -0.122070
621561, 0.556641, 0.818115, -0.168701, 0.183106, -0.610352, -0.305176
621581, 0.558594, 0.817993, -0.165405, -0.122070, 0.427246, -0.366211
621601, 0.564453, 0.818848, -0.162964, -0.122070, 0.244141, -0.549316
621621, 0.560303, 0.819702, -0.160034, -0.183106, -0.793457, -0.793457
621641, 0.557129, 0.820190, -0.158203, 0.183106, -0.915528, -0.732422
621661, 0.553589, 0.819580, -0.162231, 0.488281, -1.098633, -0.244141
621681, 0.554810, 0.818848, -0.161499, 0.549316, -1.220703, 0.000000
621701, 0.557251, 0.818604, -0.165527, 0.549316, -0.305176, 0.000000
621721, 0.560059, 0.818481, -0.166138, 0.305176, -0.549316, -0.183106
621741, 0.556885, 0.818359, -0.164063, 0.122070, -0.305176, -0.183106
621761, 0.559204, 0.818970, -0.163452, -0.061035, -0.488281, -0.244141
621781, 0.556763, 0.820679, -0.156250, 0.122070, -0.976563, -0.244141
621801, 0.553101, 0.821411, -0.160278, 0.732422, -0.244141, 0.000000
621821, 0.559326, 0.818359, -0.165161, 0.427246, -0.610352, 0.122070
621841, 0.556152, 0.818726, -0.161377, 0.366211, -0.671387, 0.122070
621861, 0.565674, 0.818115, -0.166138, 0.061035, -0.549316, -0.427246
621881, 0.551270, 0.821045, -0.159302, -0.061035, -0.671387, -0.366211
621901, 0.555176, 0.821655, -0.155640, 0.610352, -0.610352, 0.000000
621921, 0.557007, 0.818848, -0.162842, 0.732422, -0.793457, 0.061035
621941, 0.557861, 0.818604, -0.162964, 0.671387, -0.366211, 0.122070
621981, 0.555298, 0.820313, -0.160278, 0.122070, -1.708985, -0.305176
622001, 0.552979, 0.821045, -0.157349, 0.671387, -0.976563, -0.061035
622021, 0.552246, 0.819946, -0.160645, 0.976563, -1.159668, 0.244141
622041, 0.554443, 0.820068, -0.163208, 0.854492, -0.976563, 0.915528
622061, 0.559937, 0.821045, -0.155273, 1.281738, -1.647950, 1.159668
622081, 0.557861, 0.819458, -0.160034, 1.892090, -2.319336, 1.159668
622101, 0.545898, 0.817749, -0.168823, 1.892090, -1.708985, 1.708985
622121, 0.549927, 0.815674, -0.172974, 1.342773, -1.220703, 2.624512
622141, 0.554565, 0.817749, -0.162354, 1.159668, -1.464844, 3.112794
622161, 0.547241, 0.815674, -0.166260, 1.708985, -2.502441, 4.028320
622181, 0.495728, 0.816040, -0.177246, 0.549316, -0.549316, 8.117676
622281, 0.546631, 0.809570, -0.173096, -3.173829, 2.197266, 21.606445
622321, 0.639282, 0.778442, -0.177612, -6.286623, 1.953125, 23.376472
622341, 0.683838, 0.782471, -0.160889, -6.958010, 6.225588, 17.456055
622361, 0.693970, 0.810425, -0.085205, 2.502441, -9.399414, 14.953617
622381, 0.653198, 0.825806, -0.104248, 14.953617, -19.470215, 12.390141
622401, 0.623291, 0.850586, -0.187622, 18.371582, -15.686039, 11.291508
622421, 0.620972, 0.805420, -0.161499, 13.610844, -15.441898, 21.545410
622441, 0.624023, 0.791992, -0.162476, 14.404301, -15.991215, 27.282722
622461, 0.618774, 0.781250, -0.177124, 14.465336, -18.249512, 34.362793
622481, 0.642578, 0.757080, -0.162231, 15.014652, -15.014652, 39.733887
622501, 0.687256, 0.726807, -0.162231, 17.761230, -20.446777, 42.541504
622521, 0.686401, 0.693970, -0.172974, 20.751953, -26.733406, 43.701172
622541, 0.666748, 0.670410, -0.194458, 22.338875, -27.954109, 44.494644
622561, 0.657471, 0.659058, -0.218872, 21.911621, -30.151375, 47.668472
622581, 0.677246, 0.632080, -0.256714, 19.348145, -26.855476, 47.607437
622601, 0.704590, 0.627930, -0.282227, 14.648441, -18.798828, 42.663574
622621, 0.708496, 0.622559, -0.268555, 11.962894, -18.371582, 40.893555
622641, 0.737915, 0.601563, -0.274170, 13.061527, -19.226074, 41.015625
622661, 0.745117, 0.590454, -0.302002, 12.268070, -21.911621, 39.245605
622701, 0.739502, 0.560913, -0.323853, 8.300781, -18.127441, 35.461426
622721, 0.758667, 0.557495, -0.326050, 5.615236, -16.296387, 31.982430
622741, 0.789185, 0.540039, -0.326294, 3.540040, -20.996094, 27.465828
622761, 0.733032, 0.540771, -0.328491, 0.183106, -17.150879, 28.076180
622781, 0.730347, 0.542847, -0.328857, -1.831055, -12.573246, 31.372078
622801, 0.777466, 0.550781, -0.354736, -6.103518, -8.422852, 33.691406
622821, 0.785278, 0.534180, -0.366577, -10.070801, -7.507326, 33.508301
622841, 0.792969, 0.509155, -0.365479, -13.549809, -4.150391, 31.311043
622901, 0.803833, 0.491943, -0.352173, -15.991215, -17.395020, 19.836426
622921, 0.768066, 0.468262, -0.362549, -18.005371, -10.742188, 18.920898
622941, 0.784424, 0.462891, -0.365112, -21.057129, -6.835939, 17.211914
622961, 0.774536, 0.467041, -0.363647, -24.353035, -10.925293, 15.686039
623061, 0.840942, 0.513306, -0.328125, -13.793949, -3.906251, 5.615236
623081, 0.836914, 0.518433, -0.335938, -12.878422, -10.375977, 5.065918
623101, 0.811157, 0.535034, -0.322266, -11.657719, -9.460449, 5.554201
623121, 0.795410, 0.536133, -0.313232, -9.094238, -9.216309, 8.911133
623141, 0.789185, 0.520142, -0.314087, -6.530764, -4.394531, 11.352543
623161, 0.788696, 0.499756, -0.325806, -5.798342, 2.746582, 13.549809
623181, 0.838623, 0.525635, -0.316162, -5.920412, 1.586915, 14.831547
623201, 0.831421, 0.542847, -0.295410, -3.295899, -1.098633, 16.357422
623221, 0.830566, 0.526489, -0.290405, 1.342773, -4.638672, 19.348145
623241, 0.835938, 0.488159, -0.306763, 4.638672, -4.821777, 20.507813
623261, 0.838623, 0.462402, -0.323608, 4.516602, -4.272461, 19.653320
623281, 0.832397, 0.442749, -0.325562, 2.807618, -4.150391, 18.249512
623301, 0.833496, 0.435425, -0.319580, 2.014160, -4.394531, 16.113281
623321, 0.833374, 0.432007, -0.313477, 2.258301, -5.249023, 14.282230
623341, 0.833374, 0.411743, -0.312622, 2.746582, -6.042482, 12.268070
623361, 0.835571, 0.391602, -0.319702, 2.441406, -5.187988, 9.277344
623381, 0.833618, 0.387451, -0.319824, 0.305176, -3.784181, 4.638672
623401, 0.832520, 0.383057, -0.315186, -0.915528, -2.624512, 2.624512
623421, 0.839233, 0.392578, -0.312500, -2.197266, -0.732422, 0.732422
623441, 0.841064, 0.402588, -0.307129, -3.234864, 0.427246, -1.098633
623481, 0.844727, 0.420654, -0.303223, -3.662110, 2.014160, -2.136230
623501, 0.841309, 0.431885, -0.302612, -3.906251, 2.502441, -1.708985
623521, 0.840942, 0.430420, -0.299194, -4.211426, 1.647950, -0.549316
623541, 0.845825, 0.428955, -0.300049, -3.479005, 1.770020, -0.549316
623561, 0.850952, 0.445557, -0.319214, -2.502441, 2.441406, -2.136230
623581, 0.850464, 0.449707, -0.325562, -2.136230, 2.014160, -1.953125
623601, 0.848999, 0.450073, -0.327148, -1.892090, 2.319336, -1.953125
623621, 0.849121, 0.453735, -0.322876, -1.525879, 2.075195, -2.136230
623641, 0.844482, 0.450562, -0.313232, -0.671387, 0.549316, -1.831055
623661, 0.845093, 0.441406, -0.308594, 0.244141, 0.061035, -1.770020
623681, 0.847778, 0.437866, -0.307739, 0.488281, 0.122070, -2.075195
623701, 0.843872, 0.434204, -0.304077, 0.244141, 0.305176, -2.441406
623721, 0.841797, 0.435303, -0.301025, -0.061035, 0.305176, -2.136230
623741, 0.844971, 0.441040, -0.300049, -0.244141, 0.061035, -1.892090
623801, 0.845459, 0.439453, -0.307373, -0.549316, 1.098633, -2.441406
623821, 0.845947, 0.449585, -0.307373, -0.854492, 1.098633, -2.380371
623841, 0.844360, 0.452148, -0.303589, -0.549316, 0.854492, -1.831055
623901, 0.844971, 0.448853, -0.301758, -0.488281, 0.366211, -1.281738
623921, 0.842407, 0.446289, -0.298950, -0.244141, 0.366211, -1.281738
623941, 0.843384, 0.449097, -0.298950, -0.305176, 0.366211, -1.098633
623961, 0.843872, 0.447754, -0.297974, -0.244141, 0.000000, -0.915528
623981, 0.841797, 0.444458, -0.297974, -0.366211, 0.061035, -0.793457
624001, 0.842529, 0.443848, -0.298340, -0.610352, 0.061035, -0.854492
624021, 0.843140, 0.444824, -0.296509, -0.671387, 0.000000, -0.915528
624041, 0.843506, 0.445923, -0.297241, -0.427246, 0.427246, -1.037598
624061, 0.843384, 0.448364, -0.301270, -0.549316, 0.427246, -0.976563
624081, 0.843750, 0.448730, -0.299072, -0.854492, 0.305176, -1.281738
624101, 0.843262, 0.450439, -0.295288, -0.854492, 0.366211, -1.708985
624121, 0.845337, 0.458008, -0.294800, -0.549316, 0.244141, -1.647950
624141, 0.843018, 0.452393, -0.296387, -0.122070, -0.366211, -1.586915
624201, 0.839111, 0.448120, -0.290649, -0.793457, 0.183106, -1.220703
624221, 0.842651, 0.452515, -0.292480, -0.854492, 0.366211, -1.037598
624241, 0.842651, 0.453857, -0.293213, -0.854492, 0.244141, -0.976563
624261, 0.841187, 0.456787, -0.292114, -0.854492, 0.671387, -0.732422
624281, 0.843872, 0.460571, -0.292236, -0.671387, 0.427246, -0.732422
624301, 0.842041, 0.461792, -0.291138, -0.305176, -0.061035, -0.793457
624321, 0.842651, 0.458618, -0.291870, 0.000000, -0.610352, -0.549316
624341, 0.842773, 0.459839, -0.291870, 0.122070, -0.549316, -0.427246
624361, 0.842529, 0.460693, -0.289795, 0.427246, -0.976563, -0.183106
624381, 0.840698, 0.457153, -0.290527, 1.037598, -1.525879, -0.305176
624401, 0.840088, 0.455200, -0.294067, 1.342773, -1.464844, -0.732422
624421, 0.841309, 0.457275, -0.295044, 1.403809, -1.708985, -1.464844
624441, 0.838623, 0.456055, -0.293335, 1.770020, -1.831055, -2.136230
624461, 0.838989, 0.453369, -0.295410, 1.831055, -1.647950, -2.685547
624481, 0.841431, 0.461182, -0.295410, 1.647950, -1.342773, -2.624512
624501, 0.843628, 0.463257, -0.292358, 1.831055, -1.281738, -1.831055
624521, 0.840332, 0.458496, -0.294800, 2.075195, -1.037598, -1.647950
624541, 0.837891, 0.454956, -0.295410, 1.525879, -0.732422, -1.525879
624561, 0.840210, 0.456055, -0.292358, 1.037598, -0.488281, -1.342773
624581, 0.839478, 0.456177, -0.291382, 0.915528, -0.610352, -1.525879
624601, 0.834961, 0.453979, -0.292480, 0.610352, -0.305176, -1.403809
624621, 0.839600, 0.452637, -0.295410, 0.061035, 0.061035, -1.708985
624641, 0.837280, 0.458618, -0.295776, -0.427246, 0.366211, -2.197266
624661, 0.832642, 0.461914, -0.293701, -0.488281, 0.061035, -1.647950
624681, 0.836548, 0.464722, -0.294922, -0.549316, -0.183106, -0.854492
624701, 0.840576, 0.466797, -0.293701, -0.610352, -0.061035, -0.488281
624761, 0.838989, 0.460815, -0.293579, -0.610352, -0.122070, -0.366211
624781, 0.835083, 0.463501, -0.293091, -0.793457, 0.000000, -0.488281
624801, 0.832642, 0.461182, -0.290405, -0.793457, 0.000000, -0.122070
624821, 0.842651, 0.460205, -0.292480, -0.488281, -0.366211, -0.732422
624901, 0.839355, 0.465088, -0.290527, -0.427246, -0.244141, -1.342773
624921, 0.836426, 0.466187, -0.291016, -0.549316, 0.000000, -1.403809
624941, 0.838501, 0.469971, -0.289795, -0.732422, 0.061035, -1.159668
624961, 0.835693, 0.467773, -0.286987, -0.610352, -0.183106, -0.976563
624981, 0.832031, 0.463379, -0.285400, -0.549316, -0.122070, -0.732422
625001, 0.841919, 0.464966, -0.288452, -0.671387, 0.488281, -0.976563
625021, 0.836304, 0.466431, -0.288696, -0.671387, 0.000000, -1.403809
625041, 0.835693, 0.471558, -0.289063, -0.671387, 0.427246, -1.342773
625061, 0.837524, 0.476196, -0.287842, -0.427246, -0.305176, -1.037598
625081, 0.838501, 0.475708, -0.286865, -0.061035, -0.366211, -0.427246
625101, 0.836670, 0.470581, -0.284424, -0.122070, -0.244141, -0.427246
625121, 0.837036, 0.468994, -0.283081, -0.061035, -0.366211, -0.244141
625141, 0.837036, 0.469116, -0.283813, 0.000000, 0.061035, -0.427246
625161, 0.835815, 0.468872, -0.285645, -0.061035, -0.122070, -0.366211
625181, 0.836548, 0.471680, -0.287720, -0.244141, 0.122070, -0.366211
625201, 0.836792, 0.473267, -0.286133, -0.305176, 0.122070, -0.549316
625221, 0.834229, 0.473145, -0.285156, -0.183106, -0.122070, -0.549316
625241, 0.838135, 0.472656, -0.284302, 0.000000, -0.061035, -0.305176
625261, 0.838135, 0.472168, -0.283447, 0.061035, -0.183106, -0.427246
625281, 0.835205, 0.469116, -0.282471, 0.183106, -0.183106, -0.122070
625301, 0.837158, 0.470459, -0.283447, 0.244141, -0.122070, -0.427246
625321, 0.834351, 0.470459, -0.283813, 0.122070, -0.305176, -0.488281
625401, 0.837158, 0.471680, -0.283447, 0.244141, -0.244141, 0.061035
625421, 0.835815, 0.470703, -0.282227, 0.183106, -0.244141, 0.061035
625441, 0.836304, 0.469604, -0.282471, 0.183106, -0.244141, 0.061035
625461, 0.835693, 0.471436, -0.283569, 0.183106, -0.244141, -0.427246
625481, 0.834595, 0.470947, -0.282715, 0.183106, -0.488281, -0.366211
625501, 0.836914, 0.471680, -0.283569, 0.244141, -0.427246, -0.366211
625521, 0.838867, 0.471802, -0.283936, 0.183106, -0.488281, -0.427246
625541, 0.837036, 0.473389, -0.282837, 0.244141, -0.366211, -0.244141
625561, 0.838257, 0.474976, -0.283325, 0.366211, -0.427246, -0.183106
625581, 0.836182, 0.472778, -0.282837, 0.366211, -0.610352, -0.061035
625601, 0.836914, 0.470215, -0.282837, 0.244141, -0.488281, -0.183106
625621, 0.837036, 0.472656, -0.282593, 0.061035, -0.427246, -0.427246
625641, 0.837891, 0.473267, -0.279541, 0.427246, -0.488281, -0.366211
625681, 0.838623, 0.469116, -0.280273, 0.183106, -0.610352, -0.244141
625701, 0.836914, 0.472168, -0.280396, 0.122070, -0.244141, -0.671387
625761, 0.838013, 0.473633, -0.281372, 0.122070, -0.061035, -0.427246
625781, 0.835938, 0.476563, -0.277832, 0.366211, -0.122070, -0.549316
625841, 0.836182, 0.481079, -0.282349, 1.098633, -0.610352, -0.549316
625861, 0.835083, 0.476807, -0.280396, 1.464844, -1.281738, 0.061035
625881, 0.837646, 0.474609, -0.281982, 1.831055, -1.464844, 0.061035
625901, 0.837280, 0.471558, -0.286011, 2.319336, -2.075195, -0.671387
625921, 0.833130, 0.477417, -0.296509, 2.746582, -2.746582, -1.586915
625941, 0.834595, 0.495972, -0.307007, 4.089355, -4.089355, -2.075195
625961, 0.838379, 0.503784, -0.310669, 7.202150, -5.920412, -3.051759
625981, 0.832031, 0.514893, -0.326660, 12.084965, -8.239746, -4.333496
626001, 0.764648, 0.529785, -0.383911, 16.052246, -7.202150, -3.906251
626021, 0.804565, 0.522705, -0.401733, 20.141602, 7.934572, -3.540040
626041, 0.795410, 0.517212, -0.411865, 25.573738, 3.540040, -6.591799
626061, 0.789185, 0.494385, -0.420776, 33.630371, 2.563477, -14.648441
626081, 0.765991, 0.470459, -0.452515, 42.358398, 8.483887, -27.465828
626101, 0.724243, 0.464233, -0.479614, 47.485367, 17.822266, -37.048340
626121, 0.702148, 0.456055, -0.474365, 49.804703, 30.700691, -43.151855
626141, 0.732056, 0.459717, -0.433228, 53.100601, 46.875015, -48.767105
626161, 0.783936, 0.476196, -0.360229, 57.556168, 64.575195, -54.687515
626181, 0.846802, 0.488037, -0.279419, 65.124512, 75.866699, -61.279312
626201, 0.872559, 0.488037, -0.258789, 71.411133, 67.687988, -66.345215
626221, 0.780029, 0.473145, -0.249023, 66.650391, 60.913101, -62.561050
626241, 0.743774, 0.458496, -0.220825, 58.593765, 65.246582, -56.213394
626261, 0.718140, 0.496948, -0.169434, 48.095718, 68.969727, -44.494644
626281, 0.732056, 0.564941, -0.110840, 40.161133, 80.688477, -33.996582
626301, 0.761353, 0.598267, -0.062256, 33.081055, 88.806183, -23.864754
626321, 0.824585, 0.668091, 0.022461, 32.531738, 96.496613, -15.686039
626341, 0.905640, 0.633057, 0.047852, 38.635254, 67.077637, -17.456055
626361, 0.909424, 0.610718, -0.027222, 32.287598, 49.560562, -24.658211
626381, 0.903687, 0.620483, -0.074097, 20.996094, 21.972656, -30.029305
626401, 0.811890, 0.659058, -0.063721, 6.774904, -4.089355, -34.545898
626421, 0.781006, 0.689087, -0.062744, 7.141115, -18.127441, -31.738289
626441, 0.782471, 0.657959, -0.088135, 10.314941, -25.573738, -29.296883
626501, 0.780151, 0.710205, -0.259521, 15.258793, -30.456551, -22.827156
626521, 0.759399, 0.712402, -0.256104, 21.118164, -27.343758, -21.301270
626541, 0.714111, 0.713745, -0.289673, 25.756844, -28.198250, -17.395020
626561, 0.663452, 0.677734, -0.330444, 21.484375, -21.179199, -12.023930
626581, 0.646240, 0.626709, -0.316040, 12.329105, -13.244633, -5.432129
626601, 0.638062, 0.600220, -0.229736, -0.122070, -3.356935, -0.488281
626621, 0.630005, 0.615479, -0.211426, -8.972168, -4.394531, 4.333496
626641, 0.645874, 0.643188, -0.181763, -17.395020, -4.211426, 10.070801
626681, 0.734009, 0.675537, -0.071655, -23.742683, -7.568361, 15.869144
626701, 0.795044, 0.702271, -0.031128, -18.859863, -14.587406, 15.502934
626721, 0.839722, 0.726196, -0.011963, -8.605957, -27.221687, 12.329105
626741, 0.871216, 0.757568, -0.021362, 5.676271, -47.546402, 6.103518
626801, 0.616089, 0.679443, -0.463989, 45.288101, -102.233917, -8.789063
626821, 0.548218, 0.661621, -0.567017, 41.992188, -91.857941, -7.202150
626841, 0.464478, 0.600464, -0.668457, 33.508301, -74.279785, -2.502441
626861, 0.491577, 0.538696, -0.745117, 15.686039, -50.659195, -2.990724
626881, 0.469604, 0.521362, -0.724487, -5.126953, -35.400391, -2.319336
626901, 0.454956, 0.528442, -0.664551, -16.052246, -19.958496, 2.380371
626921, 0.468506, 0.544312, -0.660034, -19.653320, -4.699707, 6.896975
626941, 0.523193, 0.551392, -0.671387, -23.376472, 7.263186, 9.704590
626981, 0.560913, 0.532104, -0.673950, -39.001465, 22.216805, 12.268070
627001, 0.542969, 0.536499, -0.713013, -48.889175, 31.555183, 18.127441
627021, 0.598389, 0.565063, -0.626465, -55.542007, 48.034683, 27.404793
627041, 0.723999, 0.612671, -0.410522, -45.593277, 60.302750, 28.991707
627061, 0.798218, 0.707275, -0.283569, -18.432617, 53.771988, 23.620613
627081, 0.832397, 0.670166, -0.291382, 14.953617, 40.588379, 11.901859
627101, 0.824951, 0.569458, -0.407593, 31.066902, 30.090340, -1.159668
627121, 0.794312, 0.523071, -0.457764, 32.165527, 29.174812, -11.474613
627141, 0.763428, 0.503174, -0.448120, 30.395515, 26.245125, -20.446777
627161, 0.722656, 0.539429, -0.426147, 27.526863, 20.874023, -25.939949
627181, 0.684326, 0.548828, -0.389404, 24.169930, 18.066406, -26.306160
627201, 0.678467, 0.525391, -0.344604, 20.385742, 20.751953, -28.259285
627261, 0.696045, 0.569824, -0.213501, 2.197266, 19.226074, -39.123535
627281, 0.699219, 0.641235, -0.182617, -1.281738, 13.061527, -34.484863
627301, 0.695068, 0.668091, -0.194214, -1.403809, -1.403809, -26.550301
627321, 0.686279, 0.645020, -0.261230, -4.333496, -8.666992, -24.414070
627341, 0.680176, 0.639038, -0.316162, -13.183598, -6.713869, -28.137215
627361, 0.629883, 0.744995, -0.287598, -23.803719, -7.324221, -24.230965
627381, 0.623657, 0.807495, -0.268188, -24.963387, -12.573246, -17.028809
627401, 0.621582, 0.818359, -0.239136, -22.705086, -15.014652, -13.122562
627421, 0.622803, 0.786377, -0.240967, -21.362305, -20.996094, -13.183598
627441, 0.626343, 0.752930, -0.260742, -24.780281, -26.672371, -17.944336
627461, 0.590698, 0.795044, -0.246582, -27.038582, -33.386230, -25.329597
627481, 0.513794, 0.847046, -0.237305, -25.756844, -42.175293, -25.268562
627501, 0.473511, 0.864990, -0.296265, -30.273445, -42.358398, -19.226074
627521, 0.474365, 0.871216, -0.281494, -34.667969, -29.846199, -14.343266
627541, 0.490723, 0.863037, -0.248047, -29.174812, -15.869144, -10.803223
627561, 0.508057, 0.824707, -0.252930, -25.512703, -13.305668, -10.559082
627661, 0.487305, 0.937622, -0.124634, 4.638672, -21.911621, 26.977547
627681, 0.699341, 0.774780, -0.421997, 3.967286, 14.648441, 11.108402
627701, 0.664185, 0.792236, -0.333862, -10.131836, 7.324221, -3.784181
627721, 0.538940, 0.796387, -0.231323, -9.582520, -5.737307, -5.310059
627741, 0.554077, 0.788330, -0.243042, -1.098633, -10.681152, 0.244141
627761, 0.586548, 0.783447, -0.305908, -0.183106, -14.343266, 1.708985
627781, 0.622437, 0.774048, -0.369385, -5.737307, -12.268070, -4.455566
627801, 0.599976, 0.761108, -0.417969, -16.418457, -20.751953, -8.544922
627821, 0.570801, 0.734497, -0.359253, -25.329597, -28.076180, -9.033203
627841, 0.369873, 0.783203, -0.214966, -9.643555, -48.522964, 11.779789
627861, 0.341187, 0.789551, -0.267090, 14.404301, -31.799324, 27.526863
627881, 0.318848, 0.809814, -0.362427, 26.916512, 2.868653, 34.729004
627901, 0.325806, 0.864624, -0.372070, 34.667969, 38.391113, 33.874512
627921, 0.455078, 0.896851, -0.329224, 42.358398, 86.853027, 19.165039
627941, 0.511597, 0.891479, -0.275269, 50.659195, 96.374542, 6.103518
627961, 0.561157, 0.898804, -0.275146, 49.682632, 101.440460, -7.446291
627981, 0.678223, 0.924561, -0.193726, 40.344238, 98.571808, -21.606445
628001, 0.814209, 0.923584, -0.111328, 37.963867, 87.341309, -45.043961
628021, 0.839355, 0.857544, -0.089722, 36.376953, 55.969254, -70.983887
628041, 0.740479, 0.783081, -0.068848, 28.564461, 23.681648, -82.641602
628061, 0.641846, 0.742065, -0.086548, 22.460945, -18.371582, -77.697754
628081, 0.562622, 0.746338, -0.134399, 12.573246, -56.396500, -60.546890
628101, 0.549683, 0.764038, -0.160156, 3.845216, -67.749023, -48.095718
628121, 0.617676, 0.769531, -0.282471, -13.427738, -59.448257, -43.884277
628141, 0.568604, 0.735229, -0.201294, -26.062019, -92.712433, -29.174812
628161, 0.511841, 0.737061, -0.280884, -25.146492, -122.131378, -4.272461
628181, 0.482178, 0.722290, -0.448853, -43.029785, -112.487823, 7.934572
628201, 0.431885, 0.749146, -0.363892, -55.908218, -90.332062, 21.789551
628221, 0.417725, 0.765381, -0.372437, -51.818863, -63.781754, 34.912109
628241, 0.494873, 0.753418, -0.444946, -51.269547, -45.593277, 38.269043
628261, 0.472290, 0.791992, -0.383911, -49.804703, -37.475586, 39.062500
628281, 0.374023, 0.838745, -0.313599, -34.057617, -9.033203, 39.550781
628301, 0.421265, 0.853638, -0.343140, -10.620117, -9.826660, 34.301758
628321, 0.396240, 0.825195, -0.369995, -0.549316, 2.746582, 28.747566
628341, 0.360352, 0.841797, -0.374390, 2.990724, 7.446291, 37.292480
628362, 0.400757, 0.815063, -0.381470, 2.014160, 16.845703, 38.085938
628382, 0.435547, 0.845459, -0.349243, -1.770020, 27.832039, 35.583496
628422, 0.461548, 0.870972, -0.232178, 4.272461, 19.592285, 31.921394
628562, 0.683228, 0.953003, -0.390259, 19.714355, 32.348633, 14.892582
628582, 0.745483, 0.896973, -0.286133, -2.136230, 21.606445, -18.615723
628602, 0.622437, 0.869141, -0.269409, -9.033203, -0.854492, -33.264160
628702, 0.504639, 0.839478, -0.226929, -22.766121, 8.544922, -46.813980
628722, 0.455933, 0.859253, -0.195435, -22.705086, -1.770020, -44.494644
628742, 0.466919, 0.868164, -0.200928, -21.179199, 0.183106, -44.921890
628762, 0.412354, 0.847534, -0.152588, -17.517090, -3.967286, -39.062500
628782, 0.442993, 0.854004, -0.148926, -12.146000, 5.798342, -34.973145
628802, 0.456543, 0.870850, -0.146606, -7.019045, 12.878422, -33.264160
628822, 0.444946, 0.886108, -0.142944, -0.061035, 7.873537, -28.503426
628842, 0.461914, 0.873413, -0.183105, 4.516602, 3.417970, -25.817879
628862, 0.425415, 0.848389, -0.188477, 3.112794, -7.812502, -21.362305
628882, 0.346680, 0.872925, -0.192871, 10.009766, -15.686039, -7.385256
628902, 0.383057, 0.852173, -0.239990, 11.474613, -5.859377, 2.380371
628922, 0.394165, 0.858276, -0.221313, 13.305668, -5.065918, 12.207035
628942, 0.426758, 0.858032, -0.210938, 16.540527, -7.568361, 20.202637
628962, 0.442505, 0.852051, -0.255371, 17.456055, -2.380371, 24.169930
628982, 0.451294, 0.839722, -0.266479, 14.099125, 0.122070, 25.817879
629002, 0.475830, 0.848877, -0.254883, 12.939457, 6.958010, 25.756844
629022, 0.499512, 0.834229, -0.252075, 12.817387, 11.901859, 25.207527
629042, 0.552856, 0.812134, -0.251465, 12.451176, 8.056641, 24.353035
629062, 0.575439, 0.832275, -0.264893, 12.451176, 7.263186, 19.653320
629082, 0.601318, 0.827515, -0.296143, 8.056641, 6.835939, 9.704590
629102, 0.596191, 0.832642, -0.283813, 2.929688, 0.732422, 0.488281
629202, 0.417847, 0.867310, -0.229736, 0.732422, -12.268070, -1.953125
