timestamp,ax,ay,az,gx,gy,gz
2209334, 0.320068, 0.452515, -0.943848, 105.529816, -157.104492, -34.667969
2209354, -0.156982, 0.336182, -0.746582, 86.364746, -122.741730, -19.531250
2209374, -0.239014, 0.233032, -0.847900, 71.289063, -68.664551, -0.549316
2209394, -0.171875, 0.158569, -0.905151, 39.550781, -27.282722, 13.000492
2209414, -0.082275, 0.190674, -0.885986, 6.530764, 2.563477, 13.305668
2209434, 0.079468, 0.334351, -0.846924, -18.920898, 15.563969, 0.915528
2209454, 0.194824, 0.545166, -0.757813, -27.954109, 5.859377, -24.719246
2209474, 0.101807, 0.546997, -0.734375, -25.268562, -8.056641, -48.156754
2209494, -0.011230, 0.503052, -0.769165, -30.029305, -9.582520, -50.842300
2209514, -0.083496, 0.554688, -0.753662, -34.118652, 1.586915, -36.132813
2209534, -0.035767, 0.528320, -0.782104, -36.499023, 15.930180, -32.226563
2209554, 0.014038, 0.523560, -0.786987, -40.771484, 24.658211, -37.658691
2209574, 0.014404, 0.544922, -0.770996, -44.433609, 32.226563, -46.813980
2209594, -0.012329, 0.544922, -0.779297, -49.194351, 37.109375, -47.241226
2209614, -0.030884, 0.651855, -0.744873, -54.199234, 46.020523, -34.057617
2209634, 0.021240, 0.729858, -0.705566, -53.161636, 58.837906, -12.207035
2209654, 0.155640, 0.790527, -0.663330, -46.997086, 72.998047, 0.793457
2209674, 0.315552, 0.843018, -0.622559, -35.400391, 74.218750, -2.136230
2209694, 0.359985, 0.850342, -0.621948, -25.512703, 61.096207, -5.432129
2209714, 0.298584, 0.755981, -0.596436, -23.254402, 44.372574, -4.760742
2209734, 0.313843, 0.687378, -0.557495, -32.165527, 44.738785, 0.915528
2209754, 0.357666, 0.777344, -0.458130, -33.874512, 48.522964, 7.995607
2209774, 0.437012, 0.892334, -0.391602, -18.310547, 44.799820, 11.230473
2209794, 0.461304, 0.884644, -0.446045, -2.990724, 31.799324, 10.498047
2209814, 0.451660, 0.765503, -0.579224, -9.704590, 14.465336, -2.136230
2209834, 0.335815, 0.854126, -0.593018, -25.390633, 0.610352, -14.343266
2209854, 0.267334, 1.019409, -0.485718, -13.732914, -7.324221, -7.263186
2209874, 0.227905, 1.015137, -0.554565, 4.394531, -8.666992, 6.713869
2209894, 0.209839, 0.770264, -0.635620, 6.896975, 6.225588, 16.113281
2209914, 0.255859, 0.755127, -0.650146, -3.234864, 15.441898, 13.183598
2209934, 0.292969, 0.768188, -0.597046, -7.080080, 18.188477, 11.474613
2209954, 0.337891, 0.789795, -0.547363, -4.089355, 20.690918, 9.399414
2209974, 0.363403, 0.754272, -0.566162, -2.502441, 16.113281, 7.812502
2209994, 0.337646, 0.769165, -0.588501, -7.019045, 11.474613, 3.662110
2210014, 0.309937, 0.778320, -0.571655, -10.986328, 2.868653, -2.441406
2210034, 0.249634, 0.823853, -0.521973, -8.483887, -3.784181, -7.568361
2210054, 0.192505, 0.828247, -0.511841, -1.342773, -4.089355, -6.286623
2210074, 0.190796, 0.785034, -0.545654, 0.610352, 1.159668, -3.112794
2210094, 0.194458, 0.750244, -0.532959, -4.455566, 11.596684, -2.807618
2210114, 0.239624, 0.792114, -0.505249, -5.676271, 12.023930, -3.479005
2210134, 0.302979, 0.828247, -0.502441, -5.493164, 5.187988, -3.784181
2210154, 0.347656, 0.878662, -0.523560, -7.324221, -8.728027, -1.464844
2210174, 0.333984, 0.886963, -0.479248, -2.807618, -19.714355, -1.525879
2210194, 0.307495, 0.879395, -0.500366, 4.333496, -24.353035, -1.281738
2210214, 0.264038, 0.871704, -0.548584, 5.493164, -26.367195, -5.065918
2210234, 0.231323, 0.837280, -0.540283, 4.577637, -22.583015, -5.004883
2210254, 0.265991, 0.843018, -0.530151, 6.530764, -17.639160, 0.000000
2210274, 0.289917, 0.754272, -0.572510, 8.178711, -20.874023, -3.845216
2210294, 0.260010, 0.762695, -0.584839, 4.821777, -23.193367, -7.324221
2210314, 0.200073, 0.759155, -0.631836, -0.122070, -22.460945, -7.751467
2210334, 0.164551, 0.780640, -0.583374, -5.432129, -13.671879, -5.187988
2210354, 0.126099, 0.743164, -0.594238, -8.972168, -1.037598, 0.366211
2210374, 0.133545, 0.789429, -0.565186, -12.329105, 12.023930, 6.408693
2210394, 0.149170, 0.798096, -0.546997, -7.690432, 20.751953, 8.666992
2210414, 0.198242, 0.763306, -0.565918, -9.033203, 27.221687, 10.192871
2210434, 0.258057, 0.918579, -0.563599, -12.451176, 26.000984, 12.268070
2210454, 0.339111, 0.849854, -0.537476, -8.422852, 6.286623, 11.840824
2210474, 0.269897, 0.820435, -0.510742, -9.338379, 8.178711, 11.901859
2210494, 0.283813, 0.823486, -0.536133, -9.277344, 6.713869, 11.291508
2210514, 0.251221, 0.824707, -0.517090, -8.422852, 13.488773, 11.169437
2210534, 0.281616, 0.817505, -0.506836, -7.568361, 16.845703, 12.207035
2210554, 0.359375, 0.822754, -0.502808, -6.164553, 16.479492, 9.399414
2210574, 0.383179, 0.824097, -0.502197, -4.943848, 10.070801, 3.784181
2210594, 0.375000, 0.821899, -0.485229, -3.234864, 1.464844, -0.793457
2210614, 0.346802, 0.825928, -0.469116, -0.549316, -7.019045, -3.845216
2210634, 0.330933, 0.826050, -0.484375, 2.319336, -10.131836, -6.469728
2210654, 0.263916, 0.826538, -0.510620, 4.455566, -11.230473, -7.019045
2210674, 0.219604, 0.816284, -0.525879, 4.394531, -7.446291, -3.723145
2210694, 0.192871, 0.816895, -0.522827, 3.601075, -0.305176, 2.441406
2210714, 0.291382, 0.814209, -0.537598, 2.746582, 3.173829, 5.065918
2210734, 0.320190, 0.818237, -0.528809, 1.770020, 1.098633, 3.479005
2210754, 0.311768, 0.814209, -0.530029, 0.915528, -1.037598, 1.770020
2210774, 0.302979, 0.817139, -0.518677, 0.610352, -2.136230, 0.671387
2210794, 0.305054, 0.817627, -0.519775, 1.220703, -2.563477, -0.183106
2210814, 0.296387, 0.814697, -0.526245, 0.976563, -3.723145, -1.098633
2210834, 0.278931, 0.814453, -0.523926, 0.488281, -2.868653, -0.427246
2210854, 0.289063, 0.815918, -0.529785, -0.061035, -2.197266, -0.549316
2210874, 0.274780, 0.816895, -0.522583, -0.183106, -0.427246, -0.366211
2210894, 0.278564, 0.817017, -0.523315, -0.366211, 0.793457, 0.366211
2210914, 0.277344, 0.817261, -0.519897, -0.183106, 1.342773, 1.281738
2210934, 0.273071, 0.817261, -0.511963, 0.244141, 2.136230, 2.258301
2210954, 0.313477, 0.815308, -0.520386, 0.549316, 2.197266, 1.831055
2210974, 0.323975, 0.820801, -0.517578, 1.220703, -0.122070, 0.183106
2210994, 0.295044, 0.812134, -0.519409, 0.793457, -2.868653, -1.220703
2211014, 0.285156, 0.817505, -0.518188, 1.403809, -1.953125, -0.549316
2211054, 0.289429, 0.813843, -0.524780, 1.403809, -0.671387, 0.183106
2211074, 0.288940, 0.814087, -0.526123, 0.854492, -1.037598, 0.305176
2211094, 0.300293, 0.813354, -0.523926, 0.732422, -0.732422, -0.366211
2211114, 0.309448, 0.814819, -0.522095, 0.976563, -1.892090, -1.159668
2211134, 0.297729, 0.813110, -0.528931, 0.610352, -4.455566, -2.075195
2211154, 0.271973, 0.813721, -0.535278, 0.000000, -3.784181, -1.647950
2211174, 0.275391, 0.812378, -0.527588, -0.610352, -2.014160, -0.671387
2211194, 0.300537, 0.812378, -0.528809, -0.732422, -2.319336, -0.427246
2211214, 0.283081, 0.816284, -0.523315, -0.976563, -5.004883, -0.061035
2211234, 0.272705, 0.813477, -0.536011, -1.342773, -2.807618, 1.647950
2211254, 0.281738, 0.814819, -0.527588, -1.953125, -0.854492, 1.953125
2211274, 0.292236, 0.810913, -0.545776, -3.112794, -1.281738, 1.098633
2211294, 0.259155, 0.815308, -0.528320, -4.211426, -0.366211, 2.502441
2211334, 0.258545, 0.816162, -0.529541, -4.516602, 9.826660, 7.202150
2211354, 0.264648, 0.820801, -0.497437, -4.028320, 16.479492, 8.911133
2211374, 0.253052, 0.829102, -0.462891, -2.075195, 23.010262, 10.131836
2211394, 0.322144, 0.826904, -0.468994, 2.380371, 27.832039, 10.620117
2211414, 0.343994, 0.830933, -0.509033, 15.686039, 11.657719, -5.493164
2211434, 0.247925, 0.813843, -0.501099, 14.099125, 10.009766, -3.417970
2211454, 0.287109, 0.811401, -0.522461, 12.695316, 16.784668, 2.319336
2211474, 0.354980, 0.820190, -0.530029, 10.620117, 17.517090, -0.122070
2211494, 0.314209, 0.817139, -0.549316, 7.080080, 18.371582, -6.469728
2211514, 0.372803, 0.821777, -0.543823, 3.845216, 16.967773, -8.666992
2211534, 0.449829, 0.825073, -0.547241, 1.037598, 2.197266, -22.766121
2211554, 0.217773, 0.798096, -0.439941, 3.112794, -4.516602, -20.996094
2211574, 0.384155, 0.826050, -0.525879, 2.136230, 5.004883, -15.747074
2211594, 0.298340, 0.810181, -0.476929, 1.037598, 2.746582, -13.671879
2211614, 0.297119, 0.815308, -0.487793, 0.671387, -0.732422, -9.094238
2211634, 0.335205, 0.826660, -0.535034, -2.990724, -2.441406, -11.047363
2211654, 0.299561, 0.811523, -0.492432, -2.319336, -3.784181, -11.657719
2211674, 0.324341, 0.831177, -0.496094, -1.037598, -1.708985, -9.277344
2211694, 0.341919, 0.824341, -0.514038, -3.906251, -7.141115, -13.305668
2211714, 0.256226, 0.826904, -0.445923, -0.671387, -8.361816, -11.474613
2211734, 0.310425, 0.822021, -0.532471, -0.366211, -4.577637, -10.192871
2211754, 0.311157, 0.821533, -0.514160, -4.150391, -7.385256, -11.718754
2211774, 0.259644, 0.831543, -0.540771, -4.821777, -7.751467, -9.704590
2211794, 0.269775, 0.830078, -0.514038, -9.826660, -9.399414, -8.544922
2211814, 0.278931, 0.827393, -0.493408, -8.666992, -11.230473, -8.056641
2211834, 0.285400, 0.833496, -0.493774, -8.483887, -13.061527, -7.019045
2211854, 0.288330, 0.834106, -0.494507, -9.582520, -14.160160, -6.286623
2211874, 0.281982, 0.831787, -0.481079, -10.498047, -15.197758, -5.737307
2211894, 0.255859, 0.835693, -0.500610, -11.230473, -12.146000, -3.356935
2211914, 0.281128, 0.823120, -0.507690, -11.962894, -12.939457, -0.671387
2211934, 0.251953, 0.817993, -0.516479, -9.948730, -14.770512, -0.610352
2211954, 0.293945, 0.828857, -0.514282, -9.277344, -17.883301, -0.915528
2211974, 0.273071, 0.816284, -0.525269, -10.437012, -18.981934, 0.976563
2211994, 0.220459, 0.824097, -0.508301, -9.399414, -15.319828, 6.225588
2212014, 0.259399, 0.842163, -0.525635, -8.422852, -14.343266, 5.432129
2212034, 0.205811, 0.832153, -0.515991, -10.253906, -12.512211, 6.164553
2212054, 0.184937, 0.830811, -0.507813, -10.253906, -8.300781, 11.962894
2212074, 0.222168, 0.854614, -0.520264, -10.620117, -5.737307, 14.770512
2212094, 0.240723, 0.845947, -0.492432, -11.535648, -5.554201, 10.314941
2212114, 0.228149, 0.848633, -0.495483, -8.728027, -5.187988, 9.277344
2212134, 0.189453, 0.855957, -0.483521, -6.286623, -2.929688, 9.948730
2212154, 0.207642, 0.858887, -0.504639, -6.591799, -0.854492, 6.896975
2212174, 0.190674, 0.870239, -0.466553, -3.601075, 4.699707, 8.972168
2212194, 0.217529, 0.858154, -0.435669, -1.586915, 3.967286, 7.507326
2212214, 0.237671, 0.862183, -0.480713, 1.464844, 6.652834, 10.437012
2212234, 0.233276, 0.864136, -0.472412, 0.976563, 4.943848, 9.643555
2212254, 0.203857, 0.872314, -0.430176, 2.014160, 6.652834, 10.864258
2212274, 0.242188, 0.868408, -0.463745, 2.746582, 11.962894, 11.779789
2212294, 0.336182, 0.869995, -0.464355, 0.732422, 8.239746, 6.652834
2212314, 0.249023, 0.869385, -0.411499, 3.234864, 2.014160, 4.638672
2212334, 0.283081, 0.858032, -0.445801, 4.882813, 1.281738, 5.249023
2212354, 0.253418, 0.858643, -0.461060, 7.873537, 3.051759, 4.699707
2212374, 0.296021, 0.857666, -0.458130, 5.920412, -0.610352, 2.319336
2212394, 0.254883, 0.856812, -0.479126, 5.126953, 3.906251, 4.333496
2212414, 0.255371, 0.854614, -0.434570, 7.995607, 3.112794, 3.967286
2212434, 0.287476, 0.846436, -0.482666, 7.629396, 7.202150, 4.577637
2212454, 0.269775, 0.843994, -0.483643, 5.310059, 6.164553, 5.493164
2212474, 0.259033, 0.848877, -0.468140, 5.432129, 9.521484, 6.103518
2212494, 0.284790, 0.845825, -0.456421, 7.873537, 12.878422, 5.981447
2212514, 0.296631, 0.840576, -0.476318, 8.605957, 12.146000, 4.699707
2212534, 0.321777, 0.840576, -0.473999, 8.666992, 10.864258, 3.723145
2212554, 0.280396, 0.834961, -0.490601, 9.765625, 8.605957, 0.671387
2212574, 0.240479, 0.833618, -0.496216, 9.765625, 11.291508, 1.647950
2212594, 0.270996, 0.841553, -0.476929, 11.535648, 17.822266, 3.906251
2212614, 0.307129, 0.826294, -0.507080, 13.061527, 16.113281, -0.183106
2212634, 0.271973, 0.839355, -0.484131, 14.282230, 12.451176, -1.525879
2212654, 0.268311, 0.844238, -0.488159, 12.451176, 15.136723, 2.563477
2212674, 0.277100, 0.856567, -0.467896, 16.357422, 14.038090, -4.089355
2212694, 0.257813, 0.856689, -0.428467, 18.920898, 18.432617, -3.723145
2212714, 0.266235, 0.839722, -0.428955, 22.094727, 21.301270, -1.525879
2212734, 0.428833, 0.814087, -0.460571, 21.301270, 25.390633, 4.943848
2212754, 0.489746, 0.766235, -0.473511, 16.296387, 18.859863, 9.277344
2212774, 0.551758, 0.761719, -0.491577, 13.732914, 10.742188, 10.803223
2212794, 0.590698, 0.767944, -0.559937, 10.864258, -4.943848, 0.793457
2212814, 0.422119, 0.769165, -0.601318, 4.333496, -16.479492, -9.460449
2212834, 0.340210, 0.774658, -0.599365, -2.685547, -15.319828, -10.437012
2212854, 0.326904, 0.788940, -0.555908, -7.751467, -14.587406, -10.253906
2212874, 0.292236, 0.809204, -0.491089, -7.751467, -7.568361, -9.094238
2212894, 0.329102, 0.816406, -0.463501, -4.028320, -5.432129, -7.934572
2212914, 0.313232, 0.817871, -0.469482, 0.183106, -6.774904, -7.385256
2212934, 0.283325, 0.807983, -0.507690, 3.601075, -5.065918, -3.906251
2212954, 0.293579, 0.800537, -0.535645, 3.234864, -2.380371, -1.647950
2212974, 0.285034, 0.799072, -0.540649, 1.892090, 0.732422, 0.488281
2212994, 0.303223, 0.801636, -0.543335, -0.366211, 4.516602, 1.892090
2213014, 0.354248, 0.803223, -0.516357, -1.098633, 5.249023, 1.281738
