timestamp,ax,ay,az,gx,gy,gz
2167252, 0.322876, 0.851929, -0.423462, 2.136230, -2.685547, -2.990724
2167272, 0.347046, 0.851440, -0.420898, 3.051759, -3.051759, -3.173829
2167292, 0.327271, 0.849976, -0.429199, 3.295899, -4.882813, -4.272461
2167312, 0.302368, 0.851563, -0.435913, 3.601075, -3.967286, -3.051759
2167332, 0.314575, 0.848267, -0.444458, 3.173829, -2.136230, -1.892090
2167352, 0.338135, 0.850830, -0.436768, 3.295899, -1.647950, -2.258301
2167372, 0.328247, 0.847778, -0.442505, 2.807618, -2.746582, -3.112794
2167392, 0.337769, 0.845947, -0.447266, 2.441406, -1.770020, -3.906251
2167412, 0.316162, 0.843262, -0.459106, 0.671387, -3.051759, -5.065918
2167432, 0.291260, 0.848022, -0.457520, -0.732422, -1.586915, -3.845216
2167452, 0.283325, 0.849243, -0.452515, -1.892090, 0.488281, -1.831055
2167472, 0.282715, 0.848511, -0.448853, -2.746582, 3.356935, 0.366211
2167492, 0.309814, 0.852173, -0.440674, -3.234864, 4.516602, 1.892090
2167512, 0.328491, 0.854126, -0.426025, -2.929688, 3.723145, 1.770020
2167532, 0.323608, 0.857910, -0.414063, -1.708985, 2.685547, 1.037598
2167552, 0.321289, 0.853271, -0.429565, -0.671387, 2.990724, 1.281738
2167572, 0.312866, 0.851929, -0.434326, -0.549316, 2.868653, 1.464844
2167592, 0.310181, 0.851929, -0.442627, -1.220703, 4.089355, 2.197266
2167612, 0.307251, 0.853516, -0.436401, -1.831055, 7.141115, 3.967286
2167632, 0.311035, 0.852661, -0.427368, -1.892090, 9.460449, 5.065918
2167652, 0.339355, 0.851563, -0.426270, -1.892090, 10.314941, 5.187988
2167672, 0.368652, 0.852295, -0.415771, -1.464844, 9.216309, 3.540040
2167692, 0.383179, 0.857178, -0.413574, -0.915528, 6.286623, 0.793457
2167712, 0.389038, 0.865356, -0.407837, 0.549316, 4.455566, -2.441406
2167732, 0.311401, 0.916748, -0.386353, 3.479005, 5.432129, -4.455566
2167752, 0.258057, 1.025757, -0.296753, 14.953617, 19.348145, 1.586915
2167772, 0.347290, 1.312866, -0.272461, 61.523453, -9.521484, 2.502441
2167792, 0.470337, 0.731201, -0.767456, 59.448257, -46.386734, -28.076180
2167812, 0.187744, 0.725342, -0.650391, 27.465828, -54.931656, -44.433609
2167832, -0.052612, 0.764404, -0.573975, 24.902351, -33.020020, -28.747566
2167852, 0.018433, 0.695313, -0.619751, 21.057129, 1.708985, -13.916019
2167872, 0.115845, 0.635376, -0.623413, 8.728027, 26.062019, -9.704590
2167892, 0.216553, 0.634644, -0.572876, -2.746582, 40.649414, -9.094238
2167912, 0.330688, 0.705078, -0.524902, -8.666992, 41.564941, -13.732914
2167932, 0.339478, 0.765503, -0.477539, -6.530764, 34.484863, -18.798828
2167952, 0.294556, 0.740601, -0.489258, -8.666992, 31.127937, -17.761230
2167972, 0.322632, 0.777710, -0.446777, -13.305668, 33.386230, -14.160160
2167992, 0.374512, 0.855957, -0.413208, -6.896975, 28.625496, -8.300781
2168012, 0.384399, 0.842773, -0.441528, -4.577637, 24.353035, -9.582520
2168032, 0.372314, 0.848511, -0.429321, -3.845216, 20.080566, -12.878422
2168052, 0.362427, 0.859131, -0.442505, -3.234864, 15.747074, -12.451176
2168072, 0.351563, 0.862183, -0.421631, -0.976563, 14.465336, -11.291508
2168092, 0.328613, 0.870239, -0.427002, 1.281738, 16.479492, -10.009766
2168112, 0.311768, 0.883057, -0.421753, 4.333496, 14.709476, -4.638672
2168132, 0.307373, 0.879028, -0.433716, 6.103518, 14.526371, 2.624512
2168152, 0.355957, 0.860229, -0.445435, 2.563477, 14.770512, 5.493164
2168172, 0.387207, 0.859131, -0.438599, -2.319336, 7.080080, -0.061035
2168192, 0.296631, 0.858765, -0.415161, 0.366211, 3.173829, 4.516602
2168212, 0.292480, 0.858521, -0.439819, -0.488281, 5.859377, 12.817387
2168232, 0.364868, 0.868408, -0.431885, -1.708985, 6.958010, 10.192871
2168252, 0.357056, 0.870483, -0.427979, -2.258301, 4.028320, 5.798342
2168272, 0.342896, 0.855347, -0.426514, -1.831055, 0.854492, 2.624512
2168292, 0.327148, 0.857056, -0.423340, -2.197266, -1.464844, 0.061035
2168312, 0.308960, 0.847168, -0.423584, -2.502441, -1.770020, -1.281738
2168332, 0.324219, 0.832031, -0.424561, -2.624512, -2.441406, -2.563477
2168352, 0.312012, 0.835205, -0.434326, -3.417970, -2.868653, -4.272461
2168372, 0.310913, 0.871948, -0.407227, 1.159668, -4.211426, 0.183106
2168392, 0.340698, 0.846069, -0.440430, 3.112794, -6.408693, 1.403809
2168412, 0.330566, 0.845825, -0.441040, 2.258301, -8.239746, -2.563477
2168432, 0.302612, 0.858154, -0.444092, 4.455566, -8.789063, -5.493164
2168452, 0.291016, 0.878906, -0.460083, 6.774904, -11.230473, -4.821777
2168472, 0.264526, 0.871582, -0.456177, 11.596684, -10.864258, -0.793457
2168492, 0.280396, 0.842651, -0.498535, 10.559082, -7.507326, 0.915528
2168512, 0.287598, 0.840698, -0.501709, 8.300781, -6.408693, 0.671387
2168532, 0.283569, 0.825317, -0.509644, 3.601075, -3.417970, -1.708985
2168552, 0.279541, 0.826538, -0.483398, -0.061035, -1.708985, -2.136230
2168572, 0.279785, 0.819214, -0.455566, 0.976563, 0.244141, -0.366211
2168592, 0.282227, 0.820068, -0.456543, 2.075195, 2.990724, 2.136230
2168612, 0.314575, 0.830811, -0.466675, 1.770020, 4.272461, 2.319336
2168632, 0.340820, 0.829590, -0.475098, -0.915528, 2.380371, -1.586915
2168652, 0.334351, 0.854980, -0.449219, -0.183106, -1.098633, -2.746582
2168672, 0.329712, 0.848511, -0.455200, 2.014160, -3.540040, -3.234864
2168692, 0.314697, 0.834229, -0.472900, 0.610352, -3.540040, -4.211426
2168712, 0.294922, 0.852539, -0.462158, -2.197266, -2.197266, -4.455566
2168732, 0.299683, 0.880127, -0.444702, 0.122070, -1.281738, -2.441406
2168752, 0.311523, 0.851685, -0.462280, 2.685547, -3.723145, -0.549316
2168772, 0.315430, 0.836182, -0.464355, 2.014160, -5.615236, 0.000000
2168792, 0.304321, 0.837524, -0.467407, 1.220703, -6.103518, -0.610352
2168812, 0.289795, 0.855469, -0.460571, 2.929688, -5.859377, -0.061035
2168832, 0.290161, 0.844482, -0.475464, 4.516602, -5.920412, 0.793457
2168852, 0.297485, 0.837524, -0.485962, 3.906251, -7.507326, 0.061035
2168872, 0.280151, 0.838501, -0.477051, 4.394531, -8.361816, -0.183106
2168892, 0.266724, 0.843750, -0.477295, 5.554201, -6.225588, 2.441406
2168912, 0.284790, 0.838867, -0.476685, 7.080080, -4.211426, 4.028320
2168932, 0.278198, 0.866943, -0.457153, 10.620117, -4.394531, 5.310059
2168952, 0.286987, 0.878174, -0.452637, 15.563969, -4.699707, 8.789063
2168972, 0.310181, 0.913452, -0.450684, 20.507813, -6.103518, 12.146000
2168992, 0.316528, 0.957764, -0.439575, 29.968269, -10.559082, 16.052246
2169012, 0.295654, 0.993896, -0.428833, 42.297363, -13.061527, 19.958496
2169032, 0.262817, 1.055054, -0.434326, 57.617203, -14.709476, 23.315437
2169052, 0.233643, 0.961792, -0.458984, 73.364258, -7.934572, 25.451668
2169072, 0.259399, 0.835938, -0.537354, 78.247070, 6.958010, 23.925789
2169092, 0.294067, 0.739990, -0.566650, 78.002930, 15.991215, 24.963387
2169112, 0.328125, 0.626099, -0.582153, 72.998047, 24.108894, 28.137215
2169132, 0.417603, 0.452515, -0.598145, 52.490250, 22.155769, 31.616219
2169152, 0.456421, 0.430420, -0.546265, 38.024902, 15.747074, 30.334480
2169172, 0.414307, 0.405029, -0.488159, 31.127937, -1.708985, 31.677254
2169192, 0.341064, 0.371826, -0.487671, 22.521980, -8.911133, 34.790039
2169212, 0.338379, 0.278809, -0.514282, 12.939457, -9.216309, 34.240723
2169232, 0.397827, 0.223877, -0.745972, -3.356935, 0.366211, 25.329597
2169252, 0.636230, 0.400146, -1.342529, -35.583496, 36.193848, -1.220703
2169272, 0.842163, 1.383301, -1.203857, -54.504410, 27.465828, -20.385742
2169292, 0.571655, 1.391479, -0.450195, 15.075687, -54.931656, -17.089844
2169312, 0.440308, 0.474731, -0.794189, 65.734863, -68.908691, -27.221687
2169332, 0.288940, 0.303589, -1.057007, 17.333984, -52.063004, -29.479988
2169352, -0.080200, 0.653931, -0.931641, -32.470703, -12.695316, 0.671387
2169372, -0.049316, 0.945313, -0.403076, -9.704590, 23.315437, 36.682129
2169392, 0.153076, 0.692139, -0.439941, 33.447266, 39.672852, 36.499023
2169412, 0.332886, 0.375854, -0.589355, 33.020020, 43.640137, 7.507326
2169432, 0.325195, 0.269287, -0.628784, 11.291508, 36.865234, -18.249512
2169452, 0.241455, 0.445679, -0.686157, -14.587406, 27.221687, -28.564461
2169472, 0.199097, 0.610962, -0.684082, -26.794441, 28.015144, -30.517586
2169492, 0.240723, 0.738892, -0.690796, -24.353035, 38.818359, -22.766121
2169512, 0.441650, 0.816406, -0.721802, -10.986328, 57.861343, -15.136723
2169532, 0.526001, 0.832642, -0.701660, -3.051759, 56.762711, -5.004883
2169552, 0.523438, 0.772827, -0.653931, 3.173829, 47.668472, 9.094238
2169572, 0.544678, 0.650146, -0.597778, 4.272461, 40.222168, 20.446777
2169592, 0.540161, 0.574707, -0.588135, 0.244141, 36.804199, 24.902351
2169612, 0.520264, 0.579224, -0.595459, -9.216309, 38.513184, 27.648933
2169632, 0.523804, 0.628540, -0.545654, -12.390141, 41.687012, 29.663094
2169652, 0.560181, 0.667480, -0.545410, -8.972168, 43.090820, 27.099617
2169672, 0.594116, 0.671875, -0.543335, -5.859377, 35.766602, 23.559578
2169692, 0.608765, 0.640625, -0.525146, 0.244141, 19.653320, 16.296387
2169712, 0.619507, 0.605957, -0.544922, -0.122070, 8.422852, 9.094238
2169732, 0.589233, 0.605469, -0.557495, -2.502441, 3.479005, 2.685547
2169752, 0.561646, 0.640015, -0.554810, -3.906251, 2.441406, 0.183106
2169772, 0.542603, 0.642090, -0.530640, -1.281738, 2.563477, 0.976563
2169792, 0.540894, 0.617676, -0.547974, 0.183106, 6.225588, 1.770020
2169812, 0.553833, 0.611572, -0.559204, -1.647950, 8.117676, 1.892090
2169832, 0.568848, 0.638306, -0.560181, -2.929688, 5.737307, 0.610352
2169852, 0.576538, 0.665649, -0.553589, -2.319336, 2.014160, 1.098633
2169872, 0.587402, 0.664551, -0.539307, 0.671387, -1.586915, 2.014160
2169892, 0.587158, 0.624146, -0.547363, 1.953125, -3.479005, 1.892090
2169912, 0.584473, 0.619873, -0.531006, 0.183106, -4.516602, 0.366211
2169932, 0.581177, 0.625244, -0.511597, 0.549316, -4.333496, 1.281738
2169952, 0.586182, 0.639893, -0.533691, 1.098633, -3.540040, 1.831055
2169972, 0.592896, 0.638306, -0.534668, 0.854492, -4.821777, 0.671387
2169992, 0.585815, 0.640869, -0.544434, 0.976563, -7.568361, -0.427246
2170012, 0.550903, 0.665283, -0.576050, 1.098633, -9.948730, -0.305176
2170032, 0.526489, 0.679077, -0.591309, 2.380371, -11.169437, 1.647950
2170052, 0.495361, 0.670532, -0.614502, 3.601075, -10.498047, 3.906251
2170072, 0.492432, 0.636353, -0.602905, 5.676271, -8.605957, 5.493164
2170092, 0.479004, 0.583374, -0.606934, 3.845216, -6.958010, 1.708985
2170112, 0.455322, 0.563354, -0.593140, -0.610352, -2.563477, 0.183106
2170132, 0.474487, 0.566650, -0.551514, -3.356935, 6.042482, 4.211426
2170152, 0.561157, 0.574951, -0.521729, -2.136230, 12.878422, 8.056641
2170172, 0.603027, 0.567505, -0.552490, -3.295899, 15.380863, 6.591799
2170192, 0.654419, 0.616821, -0.540894, -5.493164, 14.099125, 4.089355
2170212, 0.696289, 0.655029, -0.526489, -2.746582, 2.624512, -1.647950
2170232, 0.672119, 0.633179, -0.543823, -1.403809, -11.108402, -5.737307
2170252, 0.620605, 0.641602, -0.566406, -2.685547, -22.094727, -9.460449
2170272, 0.521851, 0.670654, -0.567627, -2.563477, -20.812988, -8.239746
2170292, 0.469238, 0.669678, -0.575562, 0.305176, -15.502934, -3.662110
2170312, 0.458496, 0.631470, -0.588379, 1.525879, -7.324221, 2.014160
2170332, 0.492920, 0.595947, -0.598145, 0.488281, 0.122070, 2.624512
2170352, 0.503540, 0.603394, -0.607056, -2.258301, 2.258301, 0.732422
2170372, 0.507690, 0.614014, -0.594727, -3.723145, 2.136230, -2.014160
2170392, 0.511353, 0.617554, -0.581787, -3.051759, 2.624512, -3.356935
2170412, 0.513306, 0.623169, -0.579468, -2.807618, 4.577637, -3.723145
2170432, 0.516968, 0.633789, -0.570679, -3.234864, 6.408693, -3.234864
2170452, 0.555786, 0.634888, -0.540527, -2.685547, 7.202150, -1.647950
2170472, 0.581787, 0.634155, -0.533936, -2.807618, 6.835939, -1.831055
2170492, 0.601074, 0.646606, -0.529785, -2.746582, 4.516602, -2.563477
2170512, 0.594971, 0.673340, -0.534668, -1.831055, 0.671387, -2.075195
2170532, 0.582275, 0.691895, -0.540161, -0.915528, -3.173829, -0.915528
2170552, 0.572388, 0.682617, -0.527466, 0.793457, -7.202150, -0.732422
2170572, 0.564087, 0.646362, -0.524414, 1.159668, -10.559082, 0.671387
2170592, 0.586548, 0.613037, -0.516968, 1.831055, -8.178711, 1.770020
2170612, 0.616455, 0.614746, -0.533813, 2.014160, -9.094238, -1.403809
2170632, 0.594360, 0.643433, -0.540649, 2.868653, -15.686039, -6.286623
2170652, 0.565674, 0.671265, -0.562134, 5.126953, -21.606445, -8.300781
2170672, 0.559204, 0.642090, -0.561401, 5.981447, -27.771004, -10.375977
2170692, 0.519409, 0.625366, -0.592651, 4.882813, -32.653809, -13.671879
2170712, 0.438232, 0.640991, -0.611450, 1.708985, -32.165527, -13.854984
2170732, 0.382813, 0.650757, -0.591187, 0.183106, -23.986824, -8.361816
2170752, 0.427612, 0.631470, -0.559570, 1.770020, -14.709476, -2.441406
2170772, 0.513672, 0.609863, -0.582886, 2.319336, -11.169437, -5.432129
2170792, 0.577637, 0.612305, -0.594971, 2.258301, -19.165039, -18.615723
2170812, 0.576294, 0.612427, -0.591675, 4.821777, -32.409668, -34.667969
2170832, 0.555420, 0.668335, -0.586914, 10.253906, -46.386734, -51.513687
2170852, 0.556030, 0.687866, -0.582642, 15.136723, -53.649918, -59.448257
2170872, 0.500610, 0.724243, -0.614502, 17.639160, -59.204117, -62.255875
2170892, 0.430664, 0.740112, -0.600098, 21.057129, -63.964859, -58.410660
2170912, 0.416138, 0.722778, -0.613037, 29.907234, -68.420410, -61.218277
2170932, 0.291992, 0.679565, -0.713745, 31.005867, -77.941895, -68.298340
2170952, 0.067017, 0.663696, -0.756470, 23.559578, -74.340820, -60.424820
2170972, -0.067139, 0.660645, -0.759155, 19.775391, -56.579605, -41.015625
2170992, -0.080322, 0.614502, -0.781372, 15.563969, -30.700691, -24.414070
2171012, -0.040283, 0.595947, -0.800415, 4.577637, 1.403809, -12.512211
2171032, 0.023438, 0.559082, -0.812744, -7.629396, 16.052246, -10.559082
2171052, 0.034424, 0.613892, -0.769531, -16.113281, 31.188972, -4.516602
2171072, 0.110229, 0.716675, -0.717407, -17.395020, 41.748047, 2.136230
2171092, 0.236938, 0.730225, -0.673706, -13.488773, 48.706070, 2.380371
2171112, 0.334106, 0.703735, -0.671509, -11.657719, 47.790543, -1.770020
2171132, 0.343384, 0.717285, -0.668701, -12.695316, 41.137695, -6.286623
2171152, 0.269897, 0.790405, -0.647827, -8.666992, 33.630371, -9.582520
2171172, 0.233276, 0.798584, -0.636108, -3.417970, 31.616219, -5.615236
2171192, 0.301758, 0.807007, -0.596558, 3.479005, 35.095215, -5.737307
2171212, 0.402954, 0.773926, -0.665649, 10.131836, 15.930180, -8.178711
2171232, 0.369385, 0.812012, -0.651733, 16.662598, -3.173829, -15.563969
2171252, 0.316895, 0.776733, -0.659302, 26.794441, -16.540527, -13.671879
2171272, 0.395386, 0.767212, -0.644775, 34.729004, -21.118164, -7.019045
2171292, 0.447021, 0.750854, -0.658203, 47.607437, -32.287598, -8.483887
2171312, 0.345337, 0.636963, -0.812866, 47.180191, -49.438492, -16.296387
2171332, 0.187378, 0.489502, -0.858276, 31.799324, -53.710953, -28.320320
2171352, 0.054932, 0.328247, -0.919189, 8.056641, -55.969254, -34.912109
2171372, -0.218506, 0.331665, -0.863770, -18.798828, -43.273926, -23.925789
2171392, -0.245117, 0.494385, -0.643066, -24.475105, 30.578621, -0.244141
2171412, 0.151245, 0.756348, -0.591187, -13.916019, 65.063477, 11.718754
2171432, 0.328369, 0.890137, -0.698486, -3.723145, 68.359375, 9.887695
2171452, 0.416382, 0.883423, -0.714600, 1.708985, 35.705566, 5.187988
2171472, 0.409668, 0.777466, -0.695435, 9.155273, -6.103518, -4.638672
2171492, 0.266968, 0.670776, -0.778931, 9.399414, -33.996582, -11.108402
2171512, 0.144531, 0.602295, -0.758789, 4.699707, -33.447266, -10.070801
2171532, 0.070313, 0.575684, -0.727905, 1.281738, -14.709476, -5.737307
2171552, 0.060547, 0.619507, -0.724487, -1.831055, 9.704590, 3.356935
2171572, 0.139648, 0.670288, -0.735229, -0.488281, 25.756844, 10.620117
2171592, 0.267456, 0.684448, -0.737793, -2.197266, 22.521980, 11.352543
2171612, 0.306274, 0.697632, -0.708496, -0.183106, 9.704590, 8.483887
2171632, 0.281006, 0.716675, -0.714600, 1.220703, -1.037598, 4.821777
2171652, 0.245239, 0.729736, -0.685913, 3.479005, -7.934572, 3.662110
2171672, 0.225464, 0.712646, -0.692627, 3.540040, -11.779789, 4.882813
2171692, 0.242676, 0.720093, -0.671387, 7.263186, -11.535648, 4.516602
2171712, 0.240234, 0.684448, -0.718506, 11.230473, -11.657719, 1.892090
2171732, 0.222046, 0.641602, -0.765503, 8.605957, -11.169437, 0.183106
2171752, 0.212158, 0.625366, -0.767700, 4.577637, -12.817387, -1.647950
2171772, 0.181030, 0.618042, -0.750366, 2.563477, -7.995607, -2.746582
2171792, 0.171021, 0.615112, -0.770996, 2.441406, -2.624512, -1.647950
2171812, 0.173828, 0.626099, -0.786743, 2.014160, 0.793457, -0.244141
2171832, 0.174316, 0.620728, -0.783936, 1.037598, 2.990724, 0.427246
2171852, 0.191284, 0.608154, -0.778076, -1.159668, 5.310059, 0.915528
2171872, 0.206421, 0.617065, -0.760498, -4.333496, 5.554201, 1.647950
2171892, 0.191162, 0.654907, -0.750732, -5.432129, 5.493164, 3.784181
2171912, 0.207031, 0.684448, -0.735229, -3.723145, 6.896975, 6.652834
2171932, 0.251587, 0.689087, -0.728149, 0.000000, 6.103518, 4.394531
2171952, 0.252563, 0.661377, -0.726563, -0.183106, 1.770020, 1.892090
2171972, 0.255127, 0.672974, -0.700317, 0.305176, 2.868653, 2.075195
2171992, 0.289917, 0.680176, -0.708618, 3.784181, 2.868653, 0.122070
2172012, 0.275391, 0.667358, -0.737183, 4.089355, -1.892090, -2.929688
2172032, 0.242432, 0.671509, -0.744141, 2.990724, -7.873537, -3.784181
2172052, 0.208008, 0.669922, -0.755127, 2.807618, -11.901859, -2.868653
2172072, 0.185181, 0.654297, -0.757446, 2.319336, -12.329105, -2.502441
2172092, 0.160645, 0.639893, -0.751831, 2.075195, -8.544922, -2.868653
2172112, 0.152222, 0.636963, -0.757080, 0.915528, -4.150391, -1.586915
2172132, 0.161255, 0.645996, -0.747681, 0.122070, 1.953125, 1.342773
2172152, 0.218140, 0.661621, -0.738525, 1.281738, 6.164553, 3.356935
2172172, 0.243652, 0.667358, -0.739990, 1.708985, 4.333496, 2.502441
2172192, 0.246338, 0.656738, -0.743164, 1.770020, 0.427246, 1.159668
2172212, 0.239258, 0.648804, -0.746582, -0.488281, -3.051759, -0.183106
2172232, 0.234131, 0.653564, -0.732300, 1.037598, -4.455566, -1.403809
2172252, 0.222778, 0.644409, -0.748657, 1.464844, -5.187988, -1.098633
2172272, 0.210815, 0.636230, -0.752319, 1.831055, -6.347658, -2.502441
2172292, 0.179199, 0.636719, -0.770630, 0.183106, -6.286623, -3.356935
2172312, 0.161133, 0.657349, -0.751221, -1.159668, -2.685547, -0.732422
2172332, 0.172485, 0.663452, -0.741089, 0.366211, 2.380371, 2.441406
2172352, 0.213257, 0.670410, -0.737549, 0.915528, 5.187988, 3.845216
2172372, 0.223267, 0.684326, -0.737671, 2.319336, 2.685547, 4.516602
2172392, 0.227295, 0.674072, -0.749390, 2.990724, 0.305176, 5.371094
2172412, 0.227295, 0.656616, -0.757324, 1.647950, -2.685547, 4.760742
2172432, 0.222778, 0.633911, -0.744751, 1.159668, -3.723145, 3.234864
2172452, 0.219360, 0.611450, -0.747925, 0.183106, -2.380371, 0.488281
2172472, 0.216797, 0.620239, -0.747559, -1.098633, 0.244141, -2.136230
2172492, 0.210938, 0.629883, -0.745605, -1.647950, 1.220703, -1.953125
2172512, 0.208740, 0.654785, -0.747192, -2.319336, 2.319336, 0.610352
2172532, 0.248901, 0.646973, -0.743286, -0.976563, -0.061035, -2.136230
2172552, 0.242065, 0.632202, -0.752075, -2.929688, -4.089355, -5.371094
2172572, 0.206787, 0.653931, -0.747681, -4.455566, -5.493164, -5.249023
2172592, 0.192871, 0.671753, -0.741943, -2.868653, -3.479005, -3.540040
2172612, 0.209839, 0.667603, -0.735718, -0.854492, -2.990724, -3.112794
2172632, 0.201416, 0.661377, -0.757446, -1.037598, -4.699707, -3.356935
2172652, 0.195923, 0.671143, -0.745605, -2.502441, -5.126953, -2.258301
2172672, 0.216309, 0.671509, -0.709595, -0.549316, -3.051759, -1.403809
2172692, 0.242432, 0.687378, -0.713501, 1.464844, -1.770020, -0.183106
2172712, 0.246826, 0.707886, -0.733521, 4.028320, -5.981447, -0.366211
2172732, 0.222534, 0.662109, -0.766357, 7.202150, -15.258793, -0.244141
2172752, 0.185791, 0.613037, -0.782959, 4.272461, -20.385742, -3.540040
2172772, 0.122803, 0.614990, -0.782104, -1.159668, -17.089844, -5.004883
2172792, 0.098145, 0.648193, -0.745728, -1.892090, -8.361816, -1.647950
2172812, 0.113281, 0.633179, -0.763672, -1.403809, 2.929688, 3.479005
2172832, 0.159180, 0.627563, -0.773804, -5.249023, 10.192871, 6.835939
2172852, 0.193726, 0.633423, -0.738159, -7.080080, 10.437012, 6.713869
2172872, 0.221680, 0.646973, -0.738037, -8.850098, 9.643555, 4.333496
2172892, 0.246826, 0.678467, -0.730835, -9.033203, 6.286623, 0.061035
2172912, 0.224487, 0.697754, -0.739868, -4.943848, -2.746582, -3.173829
2172932, 0.216187, 0.681519, -0.732056, -2.258301, -4.272461, -2.380371
2172952, 0.208130, 0.662720, -0.730591, -1.281738, -4.516602, -1.403809
2172972, 0.196167, 0.658936, -0.736572, -1.831055, -2.563477, -1.525879
2172992, 0.187378, 0.661743, -0.738281, -2.502441, -1.708985, -2.197266
2173012, 0.168823, 0.675293, -0.744019, -3.295899, -2.136230, -2.746582
2173032, 0.167480, 0.686279, -0.735596, -3.601075, -1.647950, 0.610352
2173052, 0.194702, 0.694336, -0.724976, -3.295899, -0.549316, 4.516602
2173072, 0.224243, 0.690552, -0.714233, -2.075195, -2.075195, 2.563477
2173092, 0.205078, 0.682861, -0.723022, -1.281738, -6.164553, -1.647950
2173112, 0.153442, 0.689331, -0.754395, -2.563477, -9.216309, -3.540040
2173132, 0.133545, 0.703979, -0.725220, -3.234864, -5.615236, 3.234864
2173152, 0.152954, 0.774536, -0.702393, 0.427246, 1.159668, 12.329105
2173172, 0.188599, 0.859985, -0.703369, 12.146000, -1.892090, 17.150879
2173192, 0.204590, 0.761719, -0.774292, 21.301270, -7.446291, 12.817387
2173212, 0.157349, 0.664185, -0.841431, 12.023930, -12.817387, 9.704590
2173232, 0.030151, 0.722046, -0.791016, 2.441406, -2.746582, 23.803719
2173252, 0.060913, 0.860474, -0.747192, 11.596684, 17.395020, 42.541504
2173272, 0.190063, 0.858765, -0.886353, 24.292000, 25.878914, 44.494644
2173292, 0.116211, 0.799072, -0.992188, 23.254402, 16.540527, 36.560059
2173312, 0.082520, 0.729614, -0.968018, 17.517090, 20.812988, 43.945313
2173332, 0.204102, 0.677490, -0.884521, 15.625004, 28.198250, 50.720230
2173352, 0.340454, 0.628662, -0.808960, 20.080566, 27.038582, 46.936050
2173372, 0.367798, 0.574097, -0.799194, 25.695808, 16.479492, 42.297363
2173392, 0.406006, 0.517456, -0.740845, 33.081055, 7.324221, 40.649414
2173412, 0.518311, 0.420654, -0.736694, 37.414551, -8.605957, 27.526863
2173432, 0.496948, 0.258789, -0.852173, 20.019531, -42.114258, 5.859377
2173452, 0.333618, 0.252441, -0.802124, -8.544922, -56.884781, -4.699707
2173472, 0.298340, 0.457764, -0.624268, -8.178711, -53.283707, -6.347658
2173492, 0.369141, 0.635742, -0.547729, 39.794922, -84.899902, -17.944336
2173512, 0.194336, 0.410034, -0.700439, 56.579605, -107.788116, -32.409668
2173532, 0.030273, 0.192139, -0.836914, 36.254883, -85.449219, -35.644531
2173552, 0.063354, 0.202637, -0.969849, -0.549316, -50.598160, -26.672371
2173572, 0.000610, 0.460205, -0.987671, -31.066902, -17.456055, -16.479492
2173592, -0.039063, 0.546631, -0.770996, -24.963387, 0.915528, 10.803223
2173612, 0.126465, 0.399536, -0.718384, -15.197758, 27.832039, 31.005867
2173632, 0.315308, 0.301636, -0.761353, -24.536140, 50.415054, 18.615723
2173652, 0.361450, 0.404907, -0.820679, -49.682632, 59.448257, 4.577637
2173672, 0.440430, 0.904785, -0.629395, -39.428711, 49.194351, -6.103518
2173692, 0.476563, 1.010132, -0.766846, -11.779789, 20.690918, -18.432617
2173712, 0.360718, 0.915039, -0.881592, -2.319336, -22.949226, -19.226074
2173732, 0.165771, 0.706665, -0.753174, 8.789063, -41.809082, -15.747074
2173752, 0.142944, 0.431641, -0.721069, 9.277344, -27.648933, -11.108402
2173772, 0.211548, 0.404419, -0.737915, -6.286623, 1.037598, -6.713869
2173792, 0.221680, 0.616211, -0.688354, -9.765625, 12.451176, -2.380371
2173812, 0.276489, 0.724243, -0.644531, 5.920412, 10.986328, -2.502441
2173832, 0.372192, 0.615845, -0.733765, 16.174316, 4.943848, -15.991215
2173852, 0.302246, 0.487671, -0.785400, 6.042482, -2.380371, -26.977547
2173872, 0.114136, 0.403076, -0.686768, -20.568848, 4.150391, -6.958010
2173892, 0.114258, 0.458252, -0.618774, -28.747566, 17.578125, 16.235352
2173912, 0.161011, 0.515625, -0.604248, -23.132332, 36.804199, 25.085457
2173932, 0.297485, 0.580933, -0.707520, -21.789551, 47.119156, 12.756351
2173952, 0.421631, 0.709717, -0.699341, -19.470215, 30.212410, -9.765625
2173972, 0.416138, 0.712036, -0.666626, -5.310059, 2.929688, -28.381355
2173992, 0.393311, 0.618530, -0.708740, 6.347658, -10.925293, -39.611816
2174012, 0.353638, 0.614258, -0.716431, 11.230473, -14.709476, -45.776382
2174032, 0.286621, 0.654785, -0.661377, 22.460945, -16.174316, -39.245605
2174052, 0.276001, 0.582764, -0.711426, 38.452148, -26.672371, -29.174812
2174072, 0.156250, 0.443848, -0.834839, 30.883797, -38.879395, -28.625496
2174092, -0.074341, 0.391357, -0.890747, 9.582520, -34.973145, -21.728516
2174112, -0.142700, 0.511841, -0.803833, -1.403809, -12.451176, -12.268070
2174132, -0.027466, 0.618042, -0.737305, 11.901859, 6.103518, -8.972168
2174152, 0.075195, 0.556030, -0.829468, 23.071297, 12.329105, -12.878422
2174172, 0.099243, 0.450684, -0.932251, 15.014652, 1.403809, -19.042969
2174192, -0.077637, 0.474121, -1.012939, -11.108402, -5.554201, -15.686039
2174212, -0.173584, 0.672729, -0.859985, -23.071297, 6.530764, 3.723145
2174232, -0.057373, 0.793823, -0.747559, -5.737307, 22.583015, 24.230965
2174252, 0.310547, 0.648804, -0.875000, 9.704590, 24.169930, 13.244633
2174272, 0.363525, 0.570923, -0.876221, 0.610352, -3.845216, -10.314941
2174292, 0.248901, 0.543457, -0.779175, -5.676271, -30.334480, -24.169930
2174412, 0.371216, 0.466675, -0.678711, 24.169930, -1.037598, -1.953125
2174432, 0.125366, 0.614746, -0.864136, -17.944336, -14.831547, -5.310059
2174452, 0.056030, 0.783813, -0.766357, -10.864258, -19.836426, 1.770020
2174472, 0.055298, 0.732544, -0.766479, 1.708985, -21.789551, 4.882813
2174492, 0.056763, 0.581421, -0.750610, 4.699707, -19.775391, 5.187988
2174512, 0.045166, 0.535156, -0.777344, -1.159668, -11.657719, 3.906251
2174532, 0.045166, 0.557983, -0.794067, -7.507326, 0.305176, 1.342773
2174552, 0.065918, 0.633789, -0.814209, -9.460449, 8.911133, -0.305176
2174572, 0.052979, 0.674683, -0.821289, -9.216309, 11.108402, 2.014160
2174592, 0.062134, 0.659180, -0.799072, -8.666992, 11.047363, 7.080080
2174612, 0.107666, 0.663330, -0.780273, -8.605957, 11.657719, 9.338379
2174632, 0.097290, 0.709473, -0.759521, -7.263186, 6.408693, 9.094238
2174652, 0.117188, 0.659424, -0.721313, -4.272461, 9.033203, 7.629396
2174672, 0.175537, 0.639893, -0.733154, -4.577637, 10.620117, 6.103518
2174692, 0.200806, 0.677002, -0.729858, -4.882813, 7.141115, 4.821777
2174712, 0.195801, 0.690552, -0.713623, -0.488281, 4.577637, 7.080080
2174732, 0.225220, 0.695801, -0.748657, 3.601075, 2.807618, 7.385256
2174752, 0.235229, 0.664917, -0.761841, 3.601075, -5.371094, 2.685547
2174772, 0.169556, 0.678833, -0.766968, 3.662110, -14.465336, -1.342773
2174792, 0.088013, 0.685791, -0.774658, 4.760742, -15.563969, -1.586915
2174812, 0.061523, 0.635864, -0.748047, 6.835939, -5.310059, 3.845216
2174832, 0.113037, 0.588501, -0.730347, 7.751467, 5.493164, 5.981447
2174852, 0.154419, 0.614136, -0.767090, 5.310059, 9.033203, 4.638672
2174872, 0.138916, 0.659790, -0.778076, 4.821777, 6.774904, 3.295899
2174892, 0.135010, 0.668701, -0.794678, 5.493164, 2.746582, 2.441406
2174912, 0.146484, 0.650269, -0.777710, 3.906251, 0.366211, 0.427246
2174932, 0.151245, 0.615234, -0.730713, 3.112794, 0.732422, -0.427246
2174952, 0.169434, 0.590332, -0.730347, 1.037598, 3.845216, -0.488281
2174972, 0.179443, 0.609741, -0.741699, -1.525879, 3.784181, -1.831055
2174992, 0.146362, 0.695068, -0.778442, -0.427246, 2.807618, -2.136230
2175012, 0.091797, 0.753174, -0.801147, 10.009766, 4.760742, 2.136230
2175032, 0.128540, 0.658325, -0.793335, 14.282230, 7.080080, 3.906251
2175052, 0.154297, 0.582642, -0.784424, 9.887695, 6.591799, 4.333496
2175072, 0.138672, 0.599487, -0.764648, 6.042482, 8.483887, 6.225588
2175092, 0.135498, 0.634033, -0.772095, 5.065918, 13.671879, 9.338379
2175112, 0.160034, 0.671509, -0.781128, 6.896975, 16.906738, 10.498047
2175132, 0.190674, 0.675903, -0.777466, 11.474613, 17.272949, 10.070801
2175152, 0.205811, 0.622559, -0.807983, 13.793949, 15.563969, 11.291508
2175172, 0.217407, 0.561279, -0.829590, 5.126953, 9.399414, 18.127441
2175192, 0.219727, 0.584717, -0.754150, 0.122070, -0.549316, 20.690918
2175212, 0.189819, 0.593384, -0.807495, -0.244141, 3.540040, 18.798828
2175232, 0.156006, 0.613525, -0.815796, -1.953125, 10.559082, 18.371582
2175252, 0.154419, 0.622925, -0.787964, 0.183106, 18.920898, 22.460945
2175272, 0.178345, 0.599731, -0.797363, 1.159668, 24.292000, 26.062019
2175292, 0.212891, 0.564331, -0.828491, -2.929688, 29.968269, 25.817879
2175312, 0.268311, 0.578735, -0.796753, -9.277344, 34.484863, 20.874023
2175332, 0.315552, 0.577026, -0.705566, -4.699707, 28.259285, 14.770512
2175352, 0.328369, 0.543213, -0.780762, -4.699707, 25.512703, 11.169437
2175372, 0.305664, 0.557739, -0.773193, -10.620117, 22.644051, 9.216309
2175392, 0.303345, 0.588745, -0.722412, -7.995607, 28.625496, 1.647950
2175412, 0.306152, 0.593140, -0.728516, -6.713869, 32.165527, 0.488281
2175432, 0.333130, 0.577881, -0.736694, -11.352543, 32.470703, 3.723145
2175452, 0.358276, 0.582886, -0.745972, -19.653320, 27.771004, 7.568361
2175472, 0.391724, 0.620483, -0.693848, -21.301270, 17.700195, 6.530764
2175492, 0.413696, 0.648682, -0.682983, -15.075687, 7.263186, 0.671387
2175512, 0.388794, 0.621094, -0.744507, -13.671879, 1.159668, -3.356935
2175532, 0.312744, 0.590088, -0.794189, -19.287109, -8.666992, -2.319336
2175552, 0.221802, 0.586426, -0.807983, -24.963387, -22.888191, 11.108402
2175572, 0.200439, 0.673584, -0.745605, -37.170410, 6.225588, 14.709476
2175592, 0.273438, 0.731201, -0.722900, -35.034180, 14.526371, 10.437012
2175612, 0.234375, 0.575073, -0.792114, -28.625496, 10.681152, 6.652834
2175632, 0.212036, 0.550171, -0.932739, -39.672852, 24.841316, 3.417970
2175652, 0.295898, 0.480469, -0.853271, -60.363785, 40.710449, 6.713869
2175672, 0.344482, 0.693481, -0.743042, -65.246582, 78.674316, 3.723145
2175692, 0.467651, 0.784180, -0.602661, -49.011246, 106.262238, 5.065918
2175712, 0.655396, 0.702759, -0.503784, -28.320320, 118.286163, -1.220703
2175732, 0.802368, 0.726318, -0.447510, -14.892582, 85.266113, -8.483887
2175752, 0.816284, 0.642944, -0.404663, -11.962894, 25.268562, -23.193367
2175772, 0.672119, 0.541016, -0.247070, -10.986328, -58.410660, -49.255386
2175792, 0.509033, 0.619385, -0.131104, -7.385256, -90.087921, -49.804703
2175812, 0.346313, 0.694214, -0.115723, 0.854492, -98.815948, -43.212891
2175832, 0.286621, 0.637451, -0.260010, -0.366211, -95.459015, -40.588379
2175852, 0.215332, 0.684570, -0.331421, -3.662110, -89.538605, -38.696289
2175872, 0.007446, 0.940674, -0.482178, 2.868653, -80.261230, -24.963387
2175892, -0.094727, 1.527222, -0.807129, 33.508301, -55.786148, 29.174812
2175912, 0.296509, 1.234497, -1.298584, 20.141602, -6.469728, 48.217789
2175932, 0.625122, 0.888794, -0.583008, 15.747074, -30.517586, 7.873537
2175952, 0.296143, 0.381836, -0.577515, -11.901859, -69.885254, -26.123055
2175972, 0.198486, 0.654419, -0.526489, -25.329597, -57.495132, -29.602058
2175992, 0.213135, 0.942871, -0.592896, -14.465336, -44.250504, -17.578125
2176012, 0.298462, 0.910400, -0.745239, -10.192871, -40.039063, -15.441898
2176032, 0.308594, 0.848755, -0.735107, -11.230473, -48.706070, -31.555183
2176052, 0.187866, 0.705444, -0.721802, -15.258793, -60.668961, -46.813980
2176072, 0.067627, 0.709961, -0.586426, -19.470215, -56.213394, -46.813980
2176092, -0.020264, 0.650146, -0.517456, -11.169437, -51.940933, -28.991707
2176112, -0.055664, 0.506836, -0.572998, -24.475105, -29.541023, -9.704590
2176132, -0.053833, 0.536133, -0.520020, -38.696289, -9.765625, 0.427246
2176152, -0.061279, 0.786621, -0.468384, -45.043961, 20.019531, 30.517586
2176172, 0.089722, 1.211670, -0.537720, -27.099617, 24.292000, 41.870117
2176192, 0.252686, 0.904541, -0.838135, -23.498543, -3.479005, 19.592285
2176232, 0.176147, 0.823975, -0.596802, -35.705566, 22.338875, 23.071297
2176252, 0.234009, 0.909180, -0.508911, -35.827637, 20.385742, 18.737793
2176272, 0.263916, 0.880371, -0.467407, -32.958984, 18.615723, 11.840824
2176292, 0.313354, 0.902222, -0.418335, -25.390633, 9.399414, 5.004883
2176312, 0.209839, 0.887573, -0.397827, -17.761230, 0.122070, -0.854492
2176332, 0.152100, 0.885376, -0.414307, -7.202150, -5.371094, 2.807618
2176352, 0.096191, 0.901001, -0.380127, 0.549316, -6.164553, 7.629396
2176372, 0.050781, 0.897095, -0.362305, 11.169437, 2.929688, 15.625004
2176392, 0.098755, 0.894897, -0.340942, 23.193367, 7.568361, 24.230965
2176412, 0.217651, 0.872314, -0.428101, 31.738289, 8.483887, 26.794441
2176432, 0.282104, 0.840210, -0.510864, 34.790039, 3.784181, 22.888191
2176452, 0.286499, 0.806885, -0.619019, 29.968269, 1.098633, 17.700195
2176472, 0.243530, 0.796509, -0.661621, 19.165039, 1.708985, 13.671879
2176492, 0.274048, 0.804321, -0.629761, 9.887695, 8.361816, 11.169437
2176512, 0.369751, 0.818115, -0.564941, 5.065918, 4.943848, 2.685547
2176532, 0.423218, 0.835327, -0.508667, 6.774904, -4.638672, -14.282230
2176552, 0.460693, 0.837524, -0.503052, 9.887695, -17.761230, -30.639656
2176572, 0.356567, 0.825317, -0.522949, 12.512211, -35.156250, -43.518066
2176592, 0.139771, 0.805054, -0.571899, 11.596684, -44.067383, -45.471207
2176612, -0.108765, 0.811768, -0.552246, 11.230473, -36.315918, -29.602058
2176632, -0.102661, 0.839478, -0.594604, 12.146000, -14.831547, -4.028320
2176652, 0.071777, 0.810547, -0.664551, 5.676271, -2.075195, -3.784181
2176672, 0.118164, 0.814697, -0.580566, -0.610352, 3.845216, -5.859377
2176692, 0.188354, 0.828125, -0.554810, -0.061035, 6.469728, -7.812502
2176712, 0.214966, 0.814331, -0.545776, 0.976563, -0.549316, -9.643555
2176732, 0.192871, 0.820313, -0.552734, 3.417970, -7.141115, -7.446291
2176752, 0.128784, 0.814575, -0.576782, 4.089355, -7.019045, -5.310059
2176772, 0.106812, 0.834961, -0.590698, 3.540040, -5.371094, -4.699707
2176792, 0.086670, 0.820923, -0.609009, 0.671387, -3.479005, -9.033203
2176812, 0.076294, 0.844116, -0.569092, 4.150391, -1.953125, -8.056641
2176832, 0.076660, 0.823975, -0.586670, 4.577637, -0.549316, -1.464844
2176852, 0.078003, 0.777954, -0.586060, -0.976563, 3.662110, 2.441406
2176872, 0.117065, 0.819092, -0.540161, 0.061035, 7.995607, 5.249023
2176892, 0.152222, 0.786499, -0.547485, 1.098633, 8.972168, 7.568361
2176912, 0.141113, 0.815186, -0.540894, 1.831055, 9.216309, 12.268070
2176932, 0.140381, 0.773926, -0.570435, 2.319336, 6.408693, 15.991215
2176952, 0.092529, 0.739136, -0.610962, -4.760742, 7.507326, 15.625004
2176972, 0.054443, 0.759644, -0.595947, -12.023930, 14.770512, 13.732914
2176992, 0.114014, 1.023804, -0.551758, -8.911133, 19.165039, 20.385742
2177012, 0.226807, 0.809937, -0.637939, -4.943848, 13.549809, 20.446777
2177032, 0.189209, 0.827759, -0.535156, -8.239746, 10.009766, 19.470215
2177052, 0.213501, 0.821167, -0.555298, -8.850098, 8.422852, 19.592285
2177072, 0.240967, 0.830200, -0.528809, -7.385256, 8.300781, 17.944336
2177092, 0.234863, 0.835449, -0.508667, -2.990724, 7.507326, 14.221195
2177112, 0.224731, 0.839111, -0.494385, 0.976563, 7.202150, 13.000492
2177132, 0.238892, 0.836182, -0.499146, 5.920412, 7.934572, 12.695316
2177152, 0.233276, 0.829346, -0.502808, 9.460449, 7.324221, 11.718754
2177172, 0.225464, 0.831299, -0.493164, 14.221195, 10.314941, 12.390141
2177192, 0.299683, 0.828491, -0.482544, 19.836426, 10.925293, 10.437012
2177212, 0.359985, 0.812378, -0.515991, 24.536140, 5.371094, 3.967286
2177232, 0.377319, 0.791748, -0.584595, 26.123055, -8.544922, -3.540040
2177252, 0.203979, 0.767090, -0.682251, 19.836426, -15.991215, -6.408693
2177272, 0.072754, 0.759033, -0.698120, 9.338379, -6.530764, 2.563477
2177292, 0.106567, 0.775879, -0.631470, -1.708985, 12.939457, 19.897461
2177312, 0.257935, 0.785400, -0.572876, -2.624512, 18.920898, 23.986824
2177352, 0.307617, 0.819214, -0.504761, 5.432129, 8.544922, 15.319828
2177372, 0.275146, 0.847290, -0.487061, 14.526371, 16.418457, 13.977055
2177392, 0.313721, 1.125732, -0.509399, 28.076180, 26.184090, 15.625004
2177412, 0.273560, 1.421021, -0.459229, 71.594238, 11.291508, 54.504410
2177432, 0.450684, 1.223022, -0.568848, 112.792999, 10.070801, 87.036133
2177452, 0.606934, 0.602539, -0.655029, 106.018097, -19.592285, 76.477051
2177472, 0.404297, 0.221313, -0.602661, 66.589355, -43.884277, 35.400391
2177492, 0.246094, 0.246826, -0.699707, 43.884277, -32.104492, 24.047859
2177512, 0.157227, 0.386230, -0.830078, 24.353035, -6.347658, 21.606445
2177532, 0.203979, 0.387207, -0.832886, 7.751467, 17.395020, 15.747074
2177552, 0.314209, 0.350342, -0.798706, -10.742188, 22.705086, -0.793457
2177572, 0.338013, 0.404785, -0.736206, -22.216805, 15.747074, -13.916019
2177592, 0.305298, 0.541260, -0.735352, -24.230965, 14.892582, -15.380863
2177612, 0.337769, 0.652222, -0.731812, -21.972656, 12.573246, -12.573246
2177632, 0.367676, 0.697754, -0.686768, -17.700195, 12.207035, -15.441898
2177652, 0.372314, 0.686279, -0.633423, -11.413578, 12.756351, -14.892582
2177672, 0.414063, 0.677246, -0.617920, -9.033203, 17.028809, -6.164553
2177692, 0.447510, 0.731812, -0.629150, -8.605957, 17.578125, -3.295899
2177712, 0.467285, 0.774536, -0.625366, -3.112794, 15.869144, -2.807618
2177732, 0.503784, 0.730347, -0.635132, 3.784181, 6.347658, -5.981447
2177752, 0.490479, 0.667358, -0.667603, 5.615236, -6.469728, -10.864258
2177772, 0.456787, 0.605957, -0.684082, 3.417970, -17.517090, -18.127441
2177792, 0.403564, 0.593994, -0.679565, 2.136230, -24.414070, -23.742683
2177812, 0.380981, 0.627197, -0.667969, 5.432129, -25.573738, -28.869637
2177832, 0.326782, 0.634644, -0.703857, 7.141115, -27.282722, -31.311043
2177852, 0.267090, 0.647095, -0.713501, -0.244141, -24.658211, -25.146492
2177872, 0.245850, 0.705322, -0.699463, -2.136230, -19.042969, -21.728516
2177892, 0.239136, 0.735962, -0.692627, 0.244141, -12.268070, -16.601563
2177912, 0.248047, 0.720825, -0.691040, 2.563477, -7.202150, -11.901859
2177932, 0.251343, 0.676636, -0.696655, 2.014160, -3.967286, -9.216309
2177952, 0.256958, 0.649780, -0.716797, -0.610352, -2.197266, -6.835939
2177972, 0.264160, 0.640137, -0.717041, -4.516602, 0.732422, -5.554201
2177992, 0.262451, 0.671387, -0.704712, -7.202150, 2.319336, -5.004883
2178012, 0.257080, 0.727051, -0.692261, -5.432129, 2.929688, -2.441406
2178052, 0.277588, 0.645996, -0.699463, -5.065918, 2.746582, -0.915528
2178072, 0.268066, 0.661987, -0.689941, -7.995607, 3.540040, 0.732422
2178092, 0.260254, 0.718018, -0.683960, -7.995607, 5.798342, 3.845216
2178132, 0.301392, 0.725464, -0.671143, -3.234864, 7.507326, 5.249023
2178152, 0.317505, 0.703857, -0.675659, -3.112794, 4.821777, 2.990724
2178172, 0.321289, 0.673096, -0.673462, -3.112794, 3.173829, 1.037598
2178192, 0.328247, 0.668457, -0.653320, -2.990724, 1.464844, 1.281738
2178212, 0.319092, 0.721680, -0.717163, -3.845216, 4.455566, -1.647950
2178232, 0.306519, 0.667969, -0.631836, -0.549316, -4.028320, -3.295899
2178252, 0.289185, 0.696045, -0.709595, -3.662110, -0.610352, -2.075195
2178272, 0.295410, 0.689819, -0.646118, -4.150391, 1.098633, -1.281738
2178292, 0.281128, 0.701294, -0.680420, -4.089355, 1.525879, -0.610352
2178312, 0.290283, 0.707397, -0.663940, -5.126953, 2.685547, -0.427246
2178332, 0.288818, 0.713257, -0.657471, -3.479005, 3.601075, -0.671387
2178352, 0.318359, 0.709473, -0.654907, -2.197266, 4.211426, 0.122070
2178372, 0.351196, 0.711304, -0.649170, -0.915528, 1.708985, -1.708985
2178392, 0.327515, 0.719604, -0.655396, -0.549316, -2.380371, -3.356935
2178412, 0.307007, 0.718750, -0.657471, 0.427246, -4.760742, -3.845216
2178432, 0.287720, 0.725830, -0.669556, 0.732422, -7.141115, -3.479005
2178452, 0.285156, 0.709839, -0.659424, 1.770020, -7.202150, -4.028320
2178472, 0.282104, 0.676636, -0.668823, 1.159668, -5.249023, -4.089355
2178492, 0.284912, 0.681396, -0.670166, -0.427246, -2.685547, -3.112794
2178512, 0.288940, 0.695679, -0.670166, -1.525879, -1.586915, -3.479005
2178532, 0.281860, 0.711182, -0.670898, -2.075195, -0.732422, -3.173829
2178552, 0.279175, 0.730347, -0.657104, -0.976563, -1.220703, -0.732422
2178572, 0.291016, 0.721558, -0.651733, 1.220703, -2.014160, -0.366211
2178592, 0.300537, 0.685181, -0.668213, 1.037598, -1.892090, -1.403809
2178612, 0.296997, 0.706177, -0.664551, -1.098633, -2.685547, -3.356935
2178632, 0.271362, 0.703979, -0.662354, -0.793457, -2.807618, -4.150391
2178652, 0.256592, 0.730225, -0.669556, -0.915528, 0.244141, -2.746582
2178672, 0.261230, 0.722534, -0.658447, 0.732422, 1.892090, -0.488281
2178692, 0.280884, 0.691284, -0.666016, 0.732422, 2.868653, 0.671387
2178712, 0.293091, 0.694702, -0.674561, -1.159668, 3.234864, -0.549316
2178732, 0.290527, 0.712891, -0.671631, -2.319336, 2.502441, -1.708985
2178752, 0.288574, 0.717651, -0.658447, -1.953125, 1.098633, -0.610352
2178772, 0.296997, 0.708496, -0.656860, -1.220703, 0.366211, 0.244141
2178792, 0.301270, 0.724487, -0.656860, -0.732422, 1.281738, -0.305176
2178812, 0.288452, 0.714966, -0.659180, 0.427246, -1.953125, -1.464844
2178832, 0.268555, 0.712524, -0.665405, -0.488281, -1.586915, -1.708985
2178852, 0.260864, 0.715576, -0.656738, -0.244141, 0.305176, -0.244141
2178872, 0.269653, 0.709229, -0.665527, -0.061035, 2.136230, 1.403809
2178892, 0.285522, 0.702515, -0.662842, -0.793457, 3.295899, 1.831055
2178912, 0.295044, 0.707397, -0.656372, -1.220703, 3.295899, 1.586915
2178932, 0.303223, 0.715576, -0.654785, -0.976563, 2.929688, 1.220703
2178952, 0.301880, 0.721924, -0.660400, -0.793457, 0.854492, 0.549316
2178972, 0.289185, 0.718628, -0.658325, -0.793457, -0.793457, -0.244141
2178992, 0.287109, 0.714600, -0.649902, -0.549316, 0.488281, 0.915528
2179012, 0.296143, 0.721680, -0.653198, -0.183106, 1.831055, 0.854492
2179032, 0.295654, 0.718750, -0.654297, 0.122070, 1.525879, 0.488281
2179052, 0.297729, 0.705688, -0.658081, -0.183106, 0.732422, 0.122070
2179072, 0.298462, 0.715454, -0.656494, -0.610352, 0.000000, -0.305176
2179092, 0.290039, 0.715210, -0.652832, -0.610352, -0.732422, -0.793457
2179112, 0.286499, 0.713013, -0.652222, -0.610352, 0.061035, 0.000000
2179132, 0.295410, 0.719482, -0.650146, 0.000000, 2.075195, 0.610352
2179152, 0.306152, 0.717896, -0.658569, 0.000000, 0.671387, 0.244141
2179172, 0.305176, 0.715942, -0.654053, -0.122070, -1.586915, -0.671387
2179192, 0.297485, 0.717773, -0.653687, -0.122070, -3.173829, -0.427246
2179212, 0.292725, 0.718628, -0.648682, 0.366211, -2.319336, -0.610352
2179232, 0.282593, 0.716064, -0.655029, 0.366211, -1.037598, -0.488281
2179252, 0.284058, 0.720581, -0.653198, 0.366211, -0.366211, 0.427246
2179272, 0.294189, 0.712158, -0.651245, 0.671387, -0.061035, 0.854492
2179292, 0.299683, 0.716187, -0.658936, 0.488281, -0.549316, 0.732422
2179312, 0.297729, 0.716675, -0.656494, 0.122070, -0.732422, -0.244141
2179332, 0.288696, 0.715942, -0.651489, 0.122070, -0.793457, 0.061035
2179352, 0.296753, 0.711548, -0.650391, 0.305176, 0.305176, 0.366211
2179372, 0.293701, 0.713989, -0.654297, 0.427246, -0.732422, -0.488281
2179392, 0.290405, 0.717773, -0.659912, 0.061035, -1.770020, -0.183106
2179412, 0.290894, 0.718994, -0.655884, 0.000000, -1.464844, 0.061035
2179432, 0.295044, 0.705444, -0.649902, 0.183106, -1.098633, 0.061035
2179452, 0.290649, 0.714844, -0.656494, -0.183106, 0.000000, -0.061035
2179472, 0.285889, 0.713013, -0.651123, -0.305176, 0.549316, 0.122070
2179492, 0.284790, 0.703491, -0.659180, -0.610352, 1.647950, 0.366211
2179512, 0.302246, 0.705444, -0.649780, -1.403809, 1.953125, 0.793457
2179532, 0.330322, 0.717651, -0.639893, -0.549316, 2.014160, 1.159668
2179552, 0.340820, 0.727417, -0.646240, 0.427246, -2.441406, -3.356935
2179572, 0.268311, 0.726929, -0.665405, -0.549316, -7.629396, -4.150391
2179592, 0.231567, 0.731689, -0.657837, -0.366211, -4.760742, -1.953125
2179612, 0.235352, 0.713135, -0.650635, -0.305176, 0.915528, 1.647950
2179632, 0.271362, 0.707397, -0.643188, -0.305176, 7.324221, 3.662110
2179652, 0.312622, 0.721313, -0.650024, 0.549316, 9.765625, 4.211426
2179672, 0.340454, 0.722900, -0.651733, 0.854492, 6.958010, 2.990724
2179692, 0.351685, 0.723145, -0.639404, 0.732422, 0.427246, 0.305176
2179712, 0.335571, 0.724609, -0.635254, 1.525879, -4.821777, -2.197266
2179732, 0.326294, 0.726074, -0.637695, 3.051759, -6.591799, -2.563477
2179752, 0.286987, 0.710205, -0.665161, 2.929688, -8.239746, -4.821777
2179772, 0.253540, 0.723145, -0.656494, 2.014160, -5.920412, -3.906251
2179792, 0.278809, 0.732544, -0.642212, 3.662110, -3.479005, -2.441406
2179812, 0.267334, 0.708740, -0.662231, 3.295899, -1.892090, -1.037598
2179832, 0.282959, 0.704956, -0.656006, 3.051759, -0.976563, -0.671387
2179852, 0.280762, 0.699951, -0.672607, 2.197266, -0.488281, 0.061035
2179872, 0.281006, 0.699097, -0.670776, 0.061035, -0.549316, 0.366211
2179892, 0.263184, 0.712158, -0.670654, -0.976563, -0.732422, 1.342773
2179912, 0.265015, 0.707642, -0.661255, -1.831055, 0.671387, 3.051759
2179932, 0.281982, 0.705566, -0.650269, -1.831055, 4.638672, 5.004883
2179952, 0.313110, 0.719971, -0.655396, -1.525879, 4.028320, 4.089355
2179972, 0.307495, 0.730713, -0.655151, -1.342773, 1.098633, 2.990724
2179992, 0.304565, 0.718018, -0.649048, -0.488281, -0.427246, 3.234864
2180012, 0.317261, 0.695190, -0.647705, -0.366211, -0.122070, 2.258301
2180032, 0.311401, 0.705688, -0.656128, -0.854492, 0.061035, 0.427246
2180052, 0.291504, 0.717163, -0.659912, -1.098633, -0.122070, 0.244141
2180072, 0.281372, 0.718262, -0.656128, -1.281738, 0.061035, 1.586915
2180092, 0.293701, 0.713745, -0.648071, -1.159668, 0.427246, 2.502441
2180112, 0.304199, 0.716431, -0.650635, -1.220703, 0.305176, 2.319336
2180132, 0.313477, 0.721313, -0.643311, -0.427246, 1.647950, 3.112794
2180152, 0.328735, 0.710571, -0.646240, 0.366211, 0.061035, 1.770020
2180172, 0.315918, 0.711182, -0.658325, -0.366211, -2.441406, -0.122070
2180192, 0.296143, 0.710449, -0.649902, -0.793457, -3.479005, -0.061035
2180212, 0.295044, 0.714233, -0.647095, -0.549316, -1.708985, 0.915528
2180232, 0.303101, 0.721558, -0.646240, 0.000000, -0.366211, 1.159668
2180252, 0.306274, 0.713989, -0.649780, 0.061035, -0.427246, 0.549316
2180272, 0.312744, 0.707886, -0.651123, -0.122070, -0.488281, 0.244141
2180292, 0.315796, 0.718384, -0.646851, -0.061035, -1.220703, -0.427246
2180312, 0.309082, 0.725586, -0.645630, 0.976563, -2.563477, -0.915528
2180332, 0.287109, 0.713745, -0.652344, 0.549316, -1.342773, -0.976563
2180352, 0.286377, 0.722778, -0.648560, 0.610352, 0.305176, 0.305176
2180372, 0.301147, 0.714355, -0.648193, 1.220703, 1.586915, 1.281738
2180392, 0.320190, 0.708496, -0.649658, 0.793457, 1.220703, 0.488281
2180412, 0.316040, 0.718872, -0.649048, 0.915528, -0.732422, -1.037598
2180432, 0.302246, 0.723633, -0.652466, 1.220703, -2.990724, -1.220703
2180452, 0.296631, 0.710693, -0.651001, 1.281738, -3.051759, -0.549316
2180472, 0.299194, 0.703125, -0.651733, 1.098633, -0.854492, -0.305176
2180492, 0.300537, 0.713135, -0.650513, 0.976563, 0.244141, -0.305176
2180512, 0.304688, 0.715210, -0.648560, 1.220703, 0.732422, 0.305176
2180532, 0.311523, 0.713013, -0.653076, 1.159668, -0.183106, 0.244141
2180552, 0.311035, 0.706177, -0.652588, 0.610352, -0.732422, -0.488281
2180572, 0.302979, 0.715942, -0.653442, 0.671387, -1.281738, -0.732422
2180592, 0.300293, 0.714844, -0.651611, 0.732422, -1.586915, -0.549316
2180612, 0.301514, 0.715088, -0.648438, 0.793457, -1.159668, -0.549316
2180632, 0.306763, 0.713623, -0.652100, 0.976563, -1.037598, -0.488281
2180652, 0.309448, 0.709717, -0.653687, 0.793457, -0.976563, -1.037598
2180672, 0.303345, 0.710571, -0.654175, 0.915528, -1.403809, -1.342773
2180692, 0.297852, 0.709351, -0.656128, 0.427246, -1.159668, -0.976563
2180712, 0.291016, 0.718750, -0.651611, 0.366211, -0.427246, -0.183106
2180732, 0.307373, 0.712158, -0.647583, 1.037598, 0.732422, 0.305176
2180752, 0.317139, 0.710449, -0.653931, 0.976563, -0.061035, -0.671387
2180772, 0.304443, 0.711792, -0.659790, 0.610352, -2.197266, -1.647950
2180792, 0.287598, 0.712402, -0.659058, 0.061035, -2.624512, -1.403809
2180812, 0.284912, 0.712402, -0.651123, 0.183106, -1.342773, -0.244141
2180832, 0.294189, 0.706543, -0.648438, 0.366211, 1.220703, 0.488281
2180852, 0.307373, 0.714722, -0.653198, 0.427246, 1.892090, 0.488281
2180872, 0.308594, 0.715454, -0.657227, 0.427246, 0.549316, -0.122070
2180892, 0.301758, 0.713379, -0.653564, 0.000000, -1.464844, -0.427246
2180912, 0.301025, 0.716431, -0.649414, 0.244141, -1.098633, -0.488281
2180932, 0.298096, 0.711182, -0.651367, 0.671387, 0.305176, -0.061035
2180952, 0.302490, 0.706055, -0.656006, 0.366211, 0.183106, -0.122070
2180972, 0.301636, 0.706299, -0.658936, 0.000000, -0.305176, -0.366211
2180992, 0.305908, 0.712280, -0.653564, -0.244141, -0.549316, 0.183106
2181012, 0.302612, 0.719604, -0.649048, 0.000000, -0.793457, 0.061035
2181032, 0.299072, 0.716553, -0.650146, 0.183106, -1.037598, -0.061035
2181052, 0.302246, 0.714233, -0.649536, 0.305176, -0.915528, 0.244141
2181072, 0.307129, 0.727905, -0.649902, 1.708985, -1.403809, -0.183106
2181092, 0.306152, 0.707886, -0.657593, 2.014160, -2.990724, -1.953125
2181112, 0.285034, 0.704712, -0.656738, 0.976563, -2.258301, -2.319336
2181132, 0.276367, 0.725708, -0.647217, 2.136230, 1.098633, -1.892090
2181152, 0.300415, 0.710693, -0.645508, 3.479005, 3.906251, 0.000000
2181172, 0.329102, 0.686401, -0.656372, 2.319336, 2.929688, -0.976563
2181192, 0.296021, 0.703857, -0.671143, -0.305176, 0.122070, -2.258301
2181212, 0.268311, 0.721069, -0.662354, -0.854492, -1.647950, 0.366211
2181232, 0.275146, 0.711914, -0.654907, -0.488281, -0.488281, 3.784181
2181252, 0.278442, 0.724243, -0.655273, -1.647950, 1.586915, 5.554201
2181272, 0.235718, 0.816162, -0.645020, 3.906251, 2.258301, 14.404301
2181292, 0.242554, 0.773804, -0.640991, 9.216309, 3.479005, 23.986824
2181312, 0.290649, 0.695801, -0.579956, 6.164553, 0.793457, 26.855476
2181332, 0.291260, 0.779907, -0.619995, 2.929688, -2.197266, 19.409180
2181352, 0.252441, 0.800903, -0.612793, 4.028320, -8.422852, 20.629883
2181372, 0.324829, 0.808838, -0.572266, 10.314941, -10.070801, 18.493652
2181392, 0.398804, 0.761719, -0.586426, 15.319828, -23.315437, 11.047363
2181412, 0.336426, 0.712036, -0.646362, 9.948730, -33.813477, 2.868653
2181432, 0.293701, 0.722046, -0.610718, 5.920412, -37.963867, 1.708985
2181452, 0.276978, 0.725830, -0.648315, 9.399414, -34.179688, 6.164553
2181472, 0.303833, 0.721558, -0.658325, 10.925293, -28.320320, 7.507326
2181532, 0.258301, 0.687012, -0.707397, 12.695316, -19.531250, 24.902351
2181552, 0.315186, 0.625977, -0.694214, 13.549809, -15.319828, 29.357918
2181572, 0.353638, 0.552979, -0.721802, 11.962894, -17.028809, 28.686531
2181592, 0.364014, 0.538208, -0.772705, 6.103518, -22.033691, 23.315437
2181612, 0.380493, 0.493530, -0.762451, -1.708985, -30.395515, 11.474613
2181632, 0.343018, 0.450073, -0.774780, -10.864258, -35.888672, -0.122070
2181652, 0.287476, 0.589355, -0.766479, -6.591799, -23.742683, -10.253906
2181672, 0.241821, 0.578247, -0.818359, -6.835939, -17.944336, -10.864258
2181692, 0.197021, 0.592041, -0.809570, -10.192871, -10.986328, -4.638672
2181832, 0.255493, 0.656494, -0.684570, -9.338379, 20.874023, 20.996094
2181852, 0.330688, 0.679199, -0.680908, -8.300781, 26.733406, 17.883301
2181872, 0.375488, 0.732666, -0.654907, -4.089355, 24.597176, 15.991215
2181972, 0.314575, 0.651978, -0.687622, 3.112794, 1.403809, 1.159668
2181992, 0.339355, 0.659302, -0.681519, 4.577637, 4.150391, -0.061035
2182092, 0.355225, 0.632935, -0.702393, 5.249023, 3.540040, -0.244141
2182112, 0.340698, 0.645264, -0.709351, 3.051759, 2.441406, -2.990724
2182132, 0.340088, 0.640259, -0.700439, 3.295899, 1.098633, -1.708985
2182152, 0.354126, 0.624634, -0.708252, 2.197266, 0.183106, -3.234864
2182172, 0.327637, 0.665527, -0.706177, 0.732422, -1.892090, -2.685547
2182192, 0.309204, 0.671143, -0.702881, 1.770020, -0.549316, -0.732422
2182212, 0.305908, 0.629150, -0.706787, 0.305176, 0.854492, 0.122070
2182232, 0.308350, 0.635010, -0.711182, -1.159668, 4.089355, 0.671387
2182252, 0.320068, 0.643921, -0.713623, -1.770020, 6.225588, 2.319336
2182272, 0.321167, 0.672852, -0.705933, -2.075195, 9.521484, 4.089355
2182292, 0.366089, 0.673584, -0.666260, 3.234864, 11.352543, 2.380371
2182312, 0.401611, 0.622192, -0.690674, 5.920412, 9.338379, -0.732422
2182332, 0.402466, 0.627197, -0.695557, 1.831055, 5.554201, -1.281738
2182352, 0.399658, 0.675659, -0.669434, 2.380371, 0.732422, -1.403809
2182372, 0.384277, 0.683350, -0.683838, 6.652834, -5.615236, -2.929688
2182392, 0.358032, 0.650513, -0.704712, 7.934572, -8.728027, -5.126953
2182412, 0.318237, 0.647095, -0.704224, 7.263186, -7.141115, -1.770020
2182432, 0.322021, 0.635132, -0.703247, 7.873537, -3.723145, -0.061035
2182452, 0.328003, 0.611450, -0.714844, 6.408693, -1.708985, -1.159668
2182472, 0.332397, 0.601196, -0.715698, 3.540040, 0.549316, -2.563477
2182492, 0.340698, 0.632446, -0.712036, 1.525879, 1.525879, -1.892090
2182512, 0.348145, 0.659058, -0.703247, 2.563477, 0.976563, -1.037598
2182532, 0.345825, 0.647339, -0.713989, 4.333496, -3.356935, -1.281738
2182552, 0.328247, 0.616699, -0.726685, 2.136230, -4.760742, -1.098633
2182572, 0.333740, 0.599487, -0.707153, 0.427246, -3.967286, -0.244141
2182592, 0.371460, 0.630493, -0.702393, 1.037598, 2.258301, -0.610352
2182612, 0.378784, 0.660400, -0.712158, 2.197266, -0.915528, -2.075195
2182632, 0.361206, 0.651001, -0.721436, 2.746582, -8.789063, -5.371094
2182652, 0.314941, 0.636475, -0.726929, 1.770020, -14.221195, -7.263186
2182672, 0.275269, 0.633667, -0.725952, 0.793457, -10.864258, -5.615236
2182692, 0.272949, 0.640625, -0.715454, 1.586915, -2.319336, -1.525879
2182712, 0.297974, 0.634277, -0.722534, 2.197266, 3.967286, 1.281738
2182732, 0.320679, 0.632446, -0.729614, 1.892090, 4.699707, 1.281738
2182752, 0.342163, 0.626831, -0.726929, 1.220703, 1.037598, 0.854492
2182772, 0.339111, 0.634888, -0.724976, -0.061035, -2.502441, -0.183106
2182792, 0.313477, 0.643677, -0.713013, 1.403809, -2.868653, 0.549316
2182812, 0.316040, 0.627808, -0.716064, 1.464844, -0.549316, 0.488281
2182832, 0.324951, 0.637573, -0.720215, 1.586915, 2.014160, 0.793457
2182852, 0.335449, 0.630005, -0.724365, 1.770020, 0.793457, 1.220703
2182872, 0.328369, 0.606201, -0.730469, -0.427246, -1.159668, 0.488281
2182892, 0.321655, 0.620239, -0.716675, -2.136230, -0.244141, 0.671387
2182912, 0.325195, 0.641968, -0.721069, -1.525879, 1.831055, 2.258301
2182932, 0.328125, 0.636108, -0.716187, -0.976563, 2.807618, 2.380371
2182952, 0.324097, 0.629028, -0.718140, -1.464844, 2.197266, 2.746582
2182972, 0.354614, 0.633301, -0.716431, -1.831055, -0.427246, 2.990724
2182992, 0.370972, 0.637207, -0.705200, -1.647950, -3.112794, 0.915528
2183012, 0.360474, 0.649780, -0.706299, -0.061035, -5.310059, -0.549316
2183032, 0.347412, 0.638306, -0.715576, 0.793457, -7.446291, -0.610352
2183052, 0.325317, 0.616089, -0.716187, -0.183106, -9.582520, -1.708985
2183072, 0.297852, 0.642700, -0.732544, -1.037598, -5.737307, -1.647950
2183092, 0.289795, 0.634888, -0.721313, -1.586915, -3.112794, 0.610352
2183152, 0.312866, 0.639404, -0.721191, -4.516602, 6.774904, 4.760742
2183172, 0.353516, 0.642456, -0.700073, -3.417970, 6.042482, 3.479005
2183192, 0.352417, 0.635864, -0.710571, -3.234864, 4.333496, 2.990724
2183212, 0.358154, 0.640747, -0.707397, -3.479005, 1.831055, 2.319336
2183232, 0.350586, 0.652222, -0.706055, -2.746582, -0.671387, 0.854492
2183252, 0.335571, 0.645874, -0.710938, -2.563477, -0.854492, 0.549316
2183272, 0.336914, 0.647461, -0.700928, -1.708985, 0.061035, 2.563477
2183292, 0.333252, 0.637451, -0.707397, -1.403809, 1.037598, 2.563477
2183312, 0.324463, 0.640015, -0.712036, -2.441406, 1.525879, 2.441406
2183332, 0.330933, 0.636841, -0.705688, -2.990724, 2.075195, 3.295899
2183352, 0.335693, 0.645996, -0.703979, -3.356935, 2.746582, 3.112794
2183372, 0.328003, 0.651001, -0.702393, -3.051759, 4.150391, 4.089355
2183552, 0.352173, 0.657837, -0.691772, -3.295899, 5.187988, 3.601075
2183572, 0.374634, 0.642090, -0.675049, -2.014160, 6.042482, 3.540040
2183592, 0.399292, 0.642456, -0.684814, -1.831055, 4.943848, 1.220703
2183612, 0.398560, 0.659180, -0.678833, -1.525879, 2.136230, -0.610352
2183632, 0.388916, 0.664917, -0.677002, 0.366211, -1.159668, -0.732422
2183652, 0.378906, 0.658569, -0.686035, 1.403809, -3.723145, -0.976563
2183672, 0.360107, 0.636353, -0.690552, 1.159668, -3.906251, -1.281738
2183692, 0.346558, 0.644287, -0.685303, 0.610352, -0.061035, -1.281738
2183712, 0.357300, 0.653931, -0.680420, 1.708985, 3.662110, -0.610352
2183732, 0.372192, 0.659546, -0.691040, 3.723145, 2.502441, -0.244141
2183752, 0.351440, 0.624390, -0.716309, 1.098633, -1.037598, 0.427246
2183772, 0.333740, 0.637085, -0.692505, -2.136230, 1.403809, 2.868653
2183792, 0.354492, 0.640015, -0.672974, 0.244141, 5.676271, 4.272461
2183812, 0.363281, 0.636353, -0.695801, -0.244141, 9.033203, 5.004883
2183832, 0.367920, 0.658691, -0.675049, -1.342773, 10.314941, 5.859377
2183852, 0.363159, 0.675171, -0.673828, -0.183106, 10.375977, 6.225588
2183872, 0.361084, 0.693604, -0.675537, 1.586915, 12.207035, 6.164553
2183892, 0.369507, 0.692627, -0.668457, 4.455566, 14.770512, 5.554201
2183912, 0.400391, 0.669067, -0.646484, 7.995607, 19.226074, 2.929688
2183932, 0.466919, 0.611938, -0.617188, 9.765625, 15.808109, -3.601075
2183952, 0.482422, 0.645752, -0.636353, 12.390141, 13.366703, -7.934572
2183972, 0.489136, 0.680054, -0.663818, 15.869144, 7.995607, -9.155273
2183992, 0.505127, 0.678589, -0.677124, 20.080566, -3.173829, -10.314941
2184012, 0.476318, 0.614868, -0.695923, 18.615723, -16.174316, -11.230473
2184032, 0.413940, 0.619019, -0.699219, 13.427738, -23.742683, -10.070801
2184052, 0.406738, 0.657715, -0.707642, 12.878422, -26.916512, -11.291508
2184072, 0.367676, 0.663086, -0.678223, 20.629883, -23.193367, -13.732914
2184092, 0.348267, 0.626221, -0.711426, 26.428230, -20.324707, -10.192871
2184112, 0.307617, 0.634766, -0.721680, 27.709969, -5.004883, 3.356935
2184132, 0.373047, 0.598267, -0.726685, 28.991707, -1.098633, 7.995607
2184152, 0.431152, 0.567017, -0.733521, 28.930672, -6.835939, 3.540040
2184172, 0.434082, 0.525757, -0.749878, 27.282722, -18.798828, -4.211426
2184192, 0.384399, 0.531616, -0.779541, 21.911621, -24.292000, -9.033203
2184212, 0.331177, 0.557739, -0.790894, 20.202637, -28.869637, -9.155273
2184232, 0.274048, 0.579102, -0.826294, 19.226074, -28.442390, -7.324221
2184252, 0.207031, 0.549561, -0.866699, 15.014652, -20.019531, -2.258301
2184272, 0.220215, 0.494507, -0.807373, 10.925293, -4.638672, 0.427246
2184292, 0.252563, 0.455444, -0.845825, 5.310059, 6.469728, 1.953125
2184312, 0.357178, 0.577148, -0.936523, -13.000492, -11.596684, -0.671387
2184332, 0.317749, 0.645264, -0.830200, -13.061527, -24.536140, 0.915528
2184352, 0.247681, 0.518799, -0.775391, -7.263186, -16.357422, 12.512211
2184372, 0.318604, 0.390137, -0.797485, -5.920412, -1.037598, 6.896975
2184392, 0.379761, 0.348267, -0.788940, -10.009766, 13.488773, -7.446291
2184412, 0.434082, 0.459351, -0.798218, -12.207035, 21.484375, -20.446777
2184432, 0.436401, 0.499146, -0.794556, -10.314941, 17.395020, -33.813477
2184452, 0.357910, 0.498169, -0.810913, -9.399414, 20.690918, -38.085938
2184472, 0.349976, 0.522949, -0.804199, -12.023930, 34.301758, -38.208008
2184492, 0.408569, 0.606812, -0.732544, -14.160160, 47.851578, -37.780762
2184512, 0.381958, 0.673340, -0.648560, -8.178711, 46.081558, -23.376472
2184532, 0.397583, 0.641479, -0.640991, 2.380371, 47.485367, -9.704590
2184552, 0.433838, 0.580933, -0.690430, 3.662110, 48.706070, -3.112794
2184572, 0.518677, 0.566162, -0.691040, 2.075195, 46.508804, -12.084965
2184592, 0.551270, 0.600220, -0.705933, 2.868653, 27.771004, -37.109375
2184612, 0.462646, 0.555176, -0.720459, 2.929688, 6.347658, -64.025879
2184632, 0.321777, 0.555176, -0.734497, -1.342773, 0.000000, -80.200195
2184672, 0.057251, 0.614502, -0.724854, -15.747074, 18.249512, -73.974609
2184692, 0.055786, 0.660522, -0.650269, -21.301270, 38.940430, -49.011246
2184712, 0.093384, 0.686035, -0.642944, -20.935059, 49.865738, -37.170410
2184732, 0.171387, 0.744629, -0.603394, -16.723633, 50.659195, -24.536140
2184753, 0.241943, 0.772461, -0.568237, -7.324221, 41.809082, -13.549809
2184773, 0.221802, 0.753906, -0.548950, 3.479005, 27.771004, 1.586915
2184793, 0.212891, 0.663818, -0.562256, 5.676271, 26.123055, 14.099125
2184813, 0.238525, 0.709106, -0.511719, 5.432129, 30.090340, 27.099617
2184833, 0.324829, 0.751831, -0.442627, 14.404301, 25.695808, 34.545898
2184853, 0.477661, 0.641357, -0.519409, 29.113777, -2.746582, 17.700195
2184873, 0.468140, 0.559814, -0.779297, 18.127441, -24.902351, -5.187988
2184893, 0.397339, 0.701416, -1.245117, -13.000492, -11.901859, -26.550301
2184913, 0.064087, 1.320923, -1.581909, -54.992691, 18.127441, -17.822266
2184933, 0.068970, 1.591431, -0.515747, -22.766121, 24.536140, 16.052246
2184953, 0.562866, 0.584473, 0.034302, 60.668961, 1.586915, 31.860359
2184973, 0.835327, 0.006592, -0.421387, 69.519043, -23.315437, -5.371094
2184993, 0.554932, 0.018799, -0.701172, 10.375977, -53.466812, -47.546402
2185013, 0.180054, 0.247314, -0.583740, -26.184090, -54.077164, -57.434097
2185033, -0.012451, 0.621582, -0.763794, -39.062500, -20.935059, -38.146973
2185053, 0.202393, 1.186523, -0.778442, -16.784668, 32.470703, 4.211426
2185073, 0.485352, 1.135742, -0.739502, 19.348145, 34.484863, 15.075687
2185093, 0.625977, 0.802124, -0.688599, 32.226563, -4.699707, 8.850098
2185113, 0.508545, 0.589722, -0.668823, 25.085457, -42.175293, -3.234864
2185133, 0.333252, 0.588745, -0.678833, 12.268070, -61.279312, -10.803223
2185153, 0.193970, 0.634155, -0.669189, 8.544922, -55.358902, -14.648441
2185173, 0.134766, 0.637085, -0.703491, 11.352543, -36.254883, -13.732914
2185193, 0.136963, 0.604858, -0.769287, 12.146000, -15.563969, -15.014652
2185213, 0.109009, 0.637207, -0.839233, 5.981447, -4.699707, -16.357422
2185233, 0.086914, 0.642944, -0.718994, -5.554201, 7.263186, -1.647950
2185253, 0.184814, 0.635742, -0.659790, -4.943848, 14.221195, 8.239746
2185273, 0.273560, 0.619141, -0.654053, -5.920412, 20.141602, 9.765625
2185293, 0.311646, 0.638550, -0.639648, -7.995607, 20.385742, 5.187988
2185313, 0.321899, 0.643799, -0.649902, -8.117676, 17.883301, 0.183106
2185333, 0.310669, 0.689331, -0.680420, -7.934572, 14.709476, -0.122070
2185353, 0.308472, 0.740356, -0.691650, -6.896975, 11.718754, 1.220703
2185373, 0.336060, 0.731934, -0.709229, -4.333496, 5.432129, -2.685547
2185393, 0.331909, 0.695801, -0.729736, -2.258301, -4.089355, -6.713869
2185413, 0.306030, 0.678101, -0.726685, -1.831055, -15.319828, -7.324221
2185433, 0.288696, 0.663574, -0.729126, 0.061035, -50.231949, -19.592285
2185453, 0.229004, 0.694336, -0.758179, -0.061035, -63.537613, -22.705086
2185473, 0.125488, 0.693848, -0.754150, -2.136230, -62.194839, -18.249512
2185493, 0.070679, 0.654053, -0.721558, -2.746582, -51.086441, -7.995607
2185513, 0.046143, 0.630249, -0.676514, -1.281738, -19.409180, 2.502441
2185533, 0.044312, 0.593994, -0.685303, 0.061035, 18.371582, 10.070801
2185553, 0.049561, 0.626099, -0.671509, 0.976563, 55.480972, 17.639160
2185573, 0.101440, 0.644409, -0.638184, 4.577637, 84.594727, 27.343758
2185593, 0.192505, 0.654907, -0.645630, 5.615236, 106.201202, 37.170410
2185613, 0.378662, 0.689453, -0.665283, -0.305176, 112.854034, 38.024902
2185633, 0.469604, 0.713501, -0.636719, -3.723145, 98.999054, 33.752441
2185653, 0.542969, 0.750977, -0.609985, -0.427246, 70.739746, 29.418953
2185673, 0.596680, 0.733398, -0.629395, 3.662110, 45.166031, 16.906738
2185693, 0.594116, 0.690430, -0.640137, 4.455566, 12.146000, 5.676271
2185713, 0.519165, 0.664551, -0.641479, 2.990724, -12.268070, -0.671387
2185733, 0.451538, 0.660278, -0.673462, 0.732422, -20.202637, -7.080080
2185753, 0.387085, 0.663086, -0.649902, 1.159668, -21.850586, -7.629396
2185773, 0.373779, 0.615112, -0.666870, 0.793457, -16.174316, -4.333496
2185793, 0.362427, 0.635620, -0.712891, -6.225588, -10.681152, 0.122070
2185813, 0.371216, 0.661743, -0.670288, -8.666992, -5.981447, -3.723145
2185833, 0.357910, 0.686279, -0.667969, -5.432129, -3.356935, -7.324221
2185853, 0.339722, 0.691406, -0.686157, -4.760742, -2.868653, -5.920412
2185873, 0.348145, 0.631714, -0.737671, -10.803223, 0.061035, -6.958010
2185893, 0.378662, 0.663574, -0.630005, -18.310547, 0.732422, -10.498047
2185913, 0.353149, 0.709473, -0.555176, -10.375977, 1.037598, -11.230473
2185933, 0.321655, 0.722046, -0.608765, -4.394531, 7.324221, -8.117676
2185953, 0.312012, 0.754150, -0.613525, -2.197266, 13.427738, -2.014160
2185973, 0.359863, 0.728149, -0.630981, -1.281738, 15.869144, 2.014160
2185993, 0.470215, 0.710571, -0.580933, 0.366211, 11.047363, -3.662110
2186013, 0.452271, 0.725952, -0.602905, 3.967286, 0.610352, -9.033203
2186053, 0.369995, 0.694946, -0.649780, 5.004883, -12.573246, -8.117676
2186073, 0.347656, 0.691528, -0.638062, 4.272461, -7.080080, -5.187988
2186093, 0.346313, 0.686401, -0.625732, 6.042482, -0.793457, -2.380371
2186113, 0.362549, 0.687378, -0.649902, 6.958010, 3.662110, -0.549316
2186133, 0.366211, 0.691162, -0.660889, 6.652834, 2.441406, 0.244141
2186153, 0.353271, 0.682739, -0.677734, 5.371094, -0.976563, 0.854492
2186173, 0.350098, 0.689941, -0.695068, 0.549316, -3.051759, 1.464844
2186193, 0.326172, 0.725464, -0.632813, 1.098633, -1.525879, 4.150391
2186213, 0.340088, 0.718750, -0.629517, 4.455566, 2.136230, 8.056641
2186233, 0.383789, 0.701172, -0.628540, 6.408693, 2.868653, 9.643555
2186253, 0.399170, 0.689819, -0.627075, 7.385256, 0.732422, 9.826660
2186273, 0.388428, 0.678589, -0.622314, 7.751467, -2.746582, 11.230473
2186293, 0.400635, 0.653320, -0.630127, 7.812502, -4.577637, 10.559082
2186313, 0.409546, 0.649292, -0.645386, 6.164553, -6.652834, 6.896975
2186333, 0.396484, 0.640747, -0.658691, 4.211426, -7.019045, 3.479005
2186353, 0.383301, 0.638794, -0.675293, 2.685547, -8.422852, 2.441406
2186373, 0.390381, 0.644531, -0.686157, 1.220703, -10.742188, 0.549316
2186393, 0.404053, 0.648193, -0.690430, -0.549316, -15.808109, -4.577637
2186413, 0.385620, 0.665649, -0.680298, -2.685547, -22.277840, -8.850098
2186433, 0.346436, 0.683716, -0.650146, -0.732422, -22.949226, -7.019045
2186453, 0.317261, 0.671021, -0.651611, 1.953125, -14.709476, -2.197266
2186473, 0.327393, 0.655518, -0.652710, 1.770020, -2.319336, 1.586915
2186493, 0.352539, 0.657959, -0.650146, -0.122070, 6.591799, 3.662110
2186513, 0.382080, 0.679077, -0.658447, -0.366211, 7.202150, 2.990724
2186533, 0.406372, 0.683716, -0.671143, 0.244141, 0.671387, -0.122070
2186553, 0.387939, 0.670776, -0.667847, 1.159668, -7.080080, -2.136230
2186573, 0.330688, 0.663452, -0.678467, 0.488281, -7.446291, -1.892090
2186593, 0.306641, 0.673340, -0.672363, 0.610352, 0.000000, 1.892090
2188133, 0.002441, 0.802124, -0.640869, 7.690432, -11.779789, -2.685547
2188293, 0.223267, 0.800049, -0.607666, 3.845216, 6.225588, -1.037598
2188233, 0.201660, 0.807739, -0.574463, 4.577637, 9.582520, 13.854984
2188253, 0.232788, 0.803711, -0.591675, 5.676271, 9.338379, 9.643555
2188273, 0.231323, 0.793945, -0.611450, 4.882813, 7.141115, 3.601075
2188313, 0.193970, 0.795044, -0.598267, 3.967286, 5.187988, -2.075195
2188333, 0.195068, 0.791870, -0.612549, 3.234864, 1.403809, -2.929688
2188353, 0.174194, 0.804443, -0.597534, 3.356935, 1.403809, -2.746582
2188373, 0.187378, 0.811890, -0.605225, 4.089355, 4.150391, -3.540040
2188393, 0.142090, 0.808350, -0.556519, 7.019045, 6.225588, -2.502441
2188413, 0.104126, 0.818237, -0.530762, 18.615723, 12.146000, 7.934572
2188433, 0.278931, 0.887573, -0.633423, 23.620613, 11.840824, 11.230473
2188453, 0.394775, 0.937744, -0.641846, 33.325195, -4.272461, 0.183106
2188473, 0.205688, 0.692871, -0.686646, 26.000984, -25.329597, -11.169437
2188493, 0.110840, 0.605957, -0.642944, 14.343266, -25.512703, -7.385256
2188513, 0.070923, 0.586670, -0.636719, 1.586915, -15.014652, 0.610352
2188533, 0.082642, 0.641113, -0.650391, -9.094238, -0.976563, 4.821777
2188593, 0.105591, 0.738281, -0.647461, -14.526371, 13.671879, 7.751467
2188553, 0.115234, 0.735840, -0.665283, -13.244633, 6.225588, 2.563477
2188573, 0.098389, 0.781006, -0.677612, -13.793949, 7.812502, 2.929688
2188613, 0.171021, 0.686523, -0.634644, -19.714355, 12.634281, 10.131836
2188753, 0.169800, 0.777954, -0.635376, -3.662110, 1.770020, 2.624512
2188773, 0.207642, 0.790405, -0.606689, -5.126953, 0.427246, 3.234864
2188793, 0.217896, 0.792969, -0.610352, -5.493164, -2.197266, 2.136230
2188813, 0.173706, 0.794189, -0.598145, -5.920412, -2.441406, 1.770020
2188833, 0.132935, 0.800293, -0.580566, -4.638672, 5.187988, 5.004883
2188853, 0.193970, 0.791138, -0.589844, -3.356935, 9.643555, 7.629396
2188873, 0.241455, 0.786987, -0.607178, -4.211426, 9.948730, 6.774904
2188893, 0.240845, 0.797485, -0.594849, -5.493164, 6.591799, 3.906251
2188913, 0.186035, 0.798828, -0.572266, -4.760742, 6.896975, 4.211426
2188933, 0.160400, 0.802979, -0.568481, -3.112794, 14.099125, 6.225588
2188953, 0.161255, 0.803833, -0.542847, -0.427246, 21.972656, 10.131836
2188973, 0.209961, 0.808472, -0.531250, 5.615236, 22.644051, 8.850098
2188993, 0.176758, 0.808350, -0.564453, 7.629396, 26.062019, 10.986328
2189013, 0.256226, 0.812134, -0.608398, 8.300781, 27.587898, 4.455566
2189033, 0.336426, 0.811157, -0.590942, 5.737307, 22.216805, -5.920412
2189053, 0.245972, 0.804321, -0.586548, 3.295899, 14.343266, -14.038090
2189073, 0.236328, 0.807617, -0.568604, 1.403809, 17.456055, -10.192871
2189093, 0.319824, 0.812134, -0.586304, -2.990724, 16.357422, -13.122562
2189193, 0.225098, 0.815308, -0.532104, -15.319828, -15.991215, -28.747566
2189213, 0.226807, 0.805176, -0.528931, -16.540527, -14.831547, -26.000984
2189233, 0.225098, 0.830322, -0.555054, -17.944336, -13.549809, -21.667480
2189253, 0.182129, 0.816528, -0.552856, -21.118164, -15.502934, -18.432617
2189273, 0.170654, 0.817139, -0.543579, -22.094727, -12.268070, -12.695316
2189293, 0.215942, 0.824219, -0.503906, -23.254402, -15.075687, -10.375977
2189313, 0.245483, 0.826660, -0.546875, -20.629883, -14.282230, -9.521484
2189333, 0.237061, 0.817505, -0.540527, -25.695808, -19.042969, -8.178711
2189353, 0.203247, 0.822998, -0.499878, -29.968269, -15.991215, 0.061035
2189373, 0.203979, 0.841064, -0.517578, -23.681648, -15.502934, 4.699707
2189393, 0.190186, 0.838867, -0.518066, -23.742683, -15.991215, 9.094238
2189413, 0.145630, 0.822510, -0.510742, -14.160160, -12.573246, 21.911621
2189433, 0.171631, 0.843994, -0.515015, -12.207035, -11.230473, 23.864754
2189453, 0.157349, 0.840210, -0.546875, -8.789063, -5.737307, 18.493652
2189473, 0.211182, 0.849243, -0.562378, -7.080080, -6.469728, 4.516602
2189493, 0.098267, 0.829468, -0.540527, -5.615236, -5.920412, 1.281738
2189513, 0.053345, 0.833008, -0.541748, 1.281738, 2.929688, 13.488773
2189533, 0.139771, 0.828613, -0.533813, 4.760742, 3.662110, 17.456055
2189553, 0.114990, 0.850586, -0.560913, 5.310059, 5.187988, 18.981934
2189573, 0.145508, 0.853027, -0.503418, 4.577637, 4.455566, 15.380863
2189593, 0.121582, 0.851685, -0.518188, 9.765625, 28.503426, 13.183598
2189613, 0.145996, 0.867188, -0.504639, 12.817387, 15.869144, 9.277344
2189633, 0.073608, 0.879517, -0.475708, 11.657719, 20.690918, 11.108402
2189653, 0.045288, 0.912476, -0.451416, 13.854984, 28.198250, 13.122562
2189673, 0.055786, 0.899658, -0.449097, 15.625004, 43.762207, 14.587406
2189733, 0.326904, 0.909546, -0.442871, 23.925789, 40.710449, -0.244141
