timestamp,ax,ay,az,gx,gy,gz
2131830, 0.193481, 0.868164, -0.486694, 0.244141, 2.563477, 1.342773
2131850, 0.251343, 0.856201, -0.485596, -0.244141, 0.061035, 0.061035
2131870, 0.241943, 0.865356, -0.472534, 0.305176, -1.159668, -1.831055
2131890, 0.251099, 0.861084, -0.478882, 0.610352, -3.356935, -5.004883
2131910, 0.226807, 0.868042, -0.483154, 1.037598, -4.333496, -6.408693
2131930, 0.202148, 0.855469, -0.490356, 0.244141, -5.126953, -7.324221
2131950, 0.184814, 0.861572, -0.492554, -0.488281, -4.272461, -5.737307
2131970, 0.163696, 0.862427, -0.490234, -1.708985, -3.173829, -3.356935
2131990, 0.173218, 0.866089, -0.483643, -1.831055, 0.305176, -0.488281
2132010, 0.198242, 0.864746, -0.482422, -2.136230, 0.244141, 0.122070
2132030, 0.195068, 0.871094, -0.474609, -1.892090, 1.098633, 0.305176
2132050, 0.198975, 0.866821, -0.472290, -1.159668, 2.258301, 0.610352
2132070, 0.205444, 0.866577, -0.480347, -1.220703, 2.746582, -0.183106
2132090, 0.203491, 0.867310, -0.474487, -0.854492, 2.136230, 0.488281
2132110, 0.214233, 0.866577, -0.471924, -0.488281, 0.122070, 0.000000
2132130, 0.214233, 0.871216, -0.465576, 0.305176, -1.098633, -0.549316
2132150, 0.218872, 0.867920, -0.470947, 1.647950, -4.089355, -1.586915
2132170, 0.194092, 0.870361, -0.463013, 2.502441, -4.455566, -1.953125
2132190, 0.185303, 0.871094, -0.468506, 3.723145, -3.845216, -1.098633
2132210, 0.177246, 0.866089, -0.477539, 4.272461, -2.197266, 0.183106
2132230, 0.192383, 0.863525, -0.490845, 3.967286, -1.220703, 1.220703
2132250, 0.202148, 0.861816, -0.489380, 3.295899, -1.647950, 1.281738
2132270, 0.206543, 0.862915, -0.486938, 3.234864, -1.647950, 0.976563
2132290, 0.211548, 0.864258, -0.483398, 3.112794, -2.807618, 0.305176
2132310, 0.204224, 0.862427, -0.480591, 3.601075, -3.051759, -0.305176
2132330, 0.200928, 0.864258, -0.486816, 3.967286, -3.173829, -0.488281
2132350, 0.179443, 0.858887, -0.496094, 3.479005, -1.953125, 0.488281
2132370, 0.198486, 0.859497, -0.494751, 3.051759, -0.549316, 1.037598
2132390, 0.210205, 0.859619, -0.492188, 2.807618, -0.610352, 0.244141
2132410, 0.218750, 0.857910, -0.496704, 2.868653, -1.525879, -0.732422
2132430, 0.208740, 0.856323, -0.503296, 2.319336, -3.173829, -1.708985
2132450, 0.188354, 0.858765, -0.493286, 1.892090, -3.845216, -1.708985
2132470, 0.187744, 0.859131, -0.495850, 2.014160, -2.075195, -0.732422
2132490, 0.203247, 0.857666, -0.502075, 1.647950, -1.525879, -1.342773
2132510, 0.194336, 0.856201, -0.505615, 1.037598, -1.159668, -1.525879
2132530, 0.190430, 0.856689, -0.500366, 0.061035, -1.159668, -1.220703
2132550, 0.183594, 0.859253, -0.494751, 0.061035, -0.061035, -0.671387
2132570, 0.181152, 0.859619, -0.490234, 0.427246, 1.037598, 0.122070
2132590, 0.201904, 0.859985, -0.494751, 0.793457, 1.525879, 0.549316
2132610, 0.200195, 0.859253, -0.494751, 0.854492, -0.427246, -0.305176
2132630, 0.184570, 0.858643, -0.497437, 1.037598, -0.244141, 0.549316
2132650, 0.192993, 0.857300, -0.496582, 0.793457, 0.000000, 0.915528
2132670, 0.215454, 0.858032, -0.497925, 0.976563, -0.366211, 0.427246
2132690, 0.212891, 0.857422, -0.493164, 1.037598, -2.075195, -1.220703
2132710, 0.194458, 0.858521, -0.500122, 1.098633, -2.441406, -1.708985
2132730, 0.169312, 0.858154, -0.497437, 0.610352, -0.549316, -0.244141
2132750, 0.177856, 0.858765, -0.495361, 0.976563, 1.281738, 1.220703
2132770, 0.188965, 0.858521, -0.489868, 1.647950, 1.892090, 2.258301
2132790, 0.212158, 0.856201, -0.501953, 1.647950, 0.427246, 1.708985
2132810, 0.186523, 0.856079, -0.498413, 1.586915, 0.000000, 1.831055
2132830, 0.203857, 0.854126, -0.506592, 1.403809, 0.793457, 2.075195
2132850, 0.207397, 0.853271, -0.504883, 0.793457, 0.915528, 1.220703
2132870, 0.209839, 0.854126, -0.503296, 0.183106, 0.244141, 0.610352
2132890, 0.205078, 0.855713, -0.501099, 0.061035, -0.793457, 0.122070
2132910, 0.212158, 0.858032, -0.493042, 0.305176, -1.159668, -0.793457
2132930, 0.193237, 0.856201, -0.496826, 0.915528, -1.586915, -0.793457
2132950, 0.189209, 0.855103, -0.503784, 0.732422, -1.098633, -0.244141
2132970, 0.186646, 0.856934, -0.505859, 0.305176, 0.000000, 0.610352
2132990, 0.194336, 0.854736, -0.500000, -0.061035, 1.037598, 1.159668
2133010, 0.211792, 0.856689, -0.499146, -0.061035, 0.061035, 0.854492
2133030, 0.193726, 0.858276, -0.490845, 0.366211, -0.183106, 0.793457
2133050, 0.197021, 0.856323, -0.489502, 1.220703, -0.122070, 1.464844
2133070, 0.204224, 0.856934, -0.495728, 1.586915, -0.366211, 1.342773
2133090, 0.198730, 0.851196, -0.506104, 1.403809, 15.441898, 1.403809
2133110, 0.205078, 0.852051, -0.510498, 0.488281, 0.732422, 1.464844
2133130, 0.199707, 0.853149, -0.504517, -0.061035, 1.159668, 1.464844
2133150, 0.213989, 0.856079, -0.497070, -0.244141, 1.220703, 1.220703
2133170, 0.234009, 0.855469, -0.489136, 0.488281, 0.061035, 0.000000
2133190, 0.241211, 0.855103, -0.495239, 0.915528, -3.112794, -2.685547
2133210, 0.203735, 0.854980, -0.501343, 1.159668, -4.455566, -3.601075
2133230, 0.188721, 0.855957, -0.501953, 1.037598, -3.417970, -2.929688
2133250, 0.180298, 0.854004, -0.503906, 0.854492, -1.220703, -2.136230
2133270, 0.194824, 0.851685, -0.505005, 0.549316, -0.244141, -1.220703
2133290, 0.206787, 0.855835, -0.498413, 0.732422, -1.281738, -0.976563
2133310, 0.208984, 0.856445, -0.496460, 1.037598, -2.136230, -1.586915
2133330, 0.199585, 0.854614, -0.505249, 1.098633, -2.258301, -2.197266
2133350, 0.182129, 0.853394, -0.504395, 0.915528, -1.647950, -1.464844
2133370, 0.191528, 0.854126, -0.503906, 0.610352, -1.098633, -0.732422
2133390, 0.185425, 0.854980, -0.498901, 0.732422, -0.549316, -0.183106
2133410, 0.187744, 0.856812, -0.501953, 0.854492, 0.061035, 0.427246
2133430, 0.200073, 0.854736, -0.496338, 1.342773, 1.037598, 0.793457
2133450, 0.201172, 0.854370, -0.504028, 1.281738, -0.061035, 0.183106
2133470, 0.191162, 0.850952, -0.502441, 1.281738, -0.366211, 0.854492
2133490, 0.209106, 0.853638, -0.506714, 1.220703, -1.403809, 0.244141
2133510, 0.197632, 0.852417, -0.504639, 0.976563, -1.892090, -0.122070
2133530, 0.191284, 0.853394, -0.501953, 1.037598, -1.281738, 0.305176
2133550, 0.207642, 0.855835, -0.502197, 1.220703, -1.586915, 0.000000
2133570, 0.191650, 0.852905, -0.499023, 1.586915, -1.586915, -0.061035
2133590, 0.196045, 0.854370, -0.503052, 2.014160, -1.403809, 0.427246
2133610, 0.195435, 0.853638, -0.500977, 2.258301, -1.220703, 0.427246
2133630, 0.207642, 0.852173, -0.501343, 2.746582, -1.220703, 0.122070
2133650, 0.212036, 0.854614, -0.500854, 3.173829, -2.502441, -0.793457
2133670, 0.209717, 0.852051, -0.509155, 3.662110, -5.187988, -2.929688
2133690, 0.193237, 0.849976, -0.516968, 3.295899, -6.774904, -2.807618
2133710, 0.184814, 0.850464, -0.518555, 3.173829, -6.164553, -2.136230
2133730, 0.184082, 0.853882, -0.500977, 3.356935, -6.835939, -1.770020
2133750, 0.176514, 0.853027, -0.495117, 4.760742, -6.652834, -0.671387
2133770, 0.202271, 0.848633, -0.505249, 6.225588, -7.812502, -0.366211
2133790, 0.210449, 0.847778, -0.513550, 7.080080, -11.474613, -1.281738
2133810, 0.207153, 0.844604, -0.526611, 7.202150, -15.808109, -2.502441
2133830, 0.170288, 0.842529, -0.518799, 7.324221, -17.822266, -2.624512
2133850, 0.170898, 0.847778, -0.533691, 7.202150, -16.174316, -1.953125
2133870, 0.122925, 0.836548, -0.562744, 4.699707, -9.948730, -0.610352
2133890, 0.132813, 0.833618, -0.561157, 2.685547, -3.784181, 1.586915
2133910, 0.150391, 0.836304, -0.551636, 0.854492, -0.488281, 2.929688
2133930, 0.181641, 0.841309, -0.530518, 0.671387, 2.014160, 3.112794
2133950, 0.205811, 0.844604, -0.520508, 1.525879, 0.244141, 0.915528
2133970, 0.198120, 0.847046, -0.513916, 3.479005, -0.610352, -1.281738
2133990, 0.195313, 0.840210, -0.531982, 4.638672, -2.502441, -2.990724
2134010, 0.160400, 0.838135, -0.536133, 5.004883, -1.708985, -3.479005
2134030, 0.167847, 0.834473, -0.556274, 4.394531, -1.953125, -2.929688
2134050, 0.150391, 0.833374, -0.552490, 2.563477, -0.915528, -1.464844
2134070, 0.170532, 0.837891, -0.539185, 2.502441, -1.037598, -0.793457
2134090, 0.186279, 0.839233, -0.532227, 3.295899, -2.746582, -1.770020
2134110, 0.167969, 0.838867, -0.534546, 4.333496, -3.601075, -2.380371
2134130, 0.157471, 0.834595, -0.546753, 4.882813, -3.601075, -1.892090
2134150, 0.161621, 0.829224, -0.568115, 3.906251, -3.723145, -1.586915
2134170, 0.139893, 0.831055, -0.559082, 2.746582, -2.136230, -0.732422
2134190, 0.152466, 0.832886, -0.553101, 2.319336, 0.305176, 0.183106
2134210, 0.175415, 0.831665, -0.546387, 2.563477, 0.244141, 0.183106
2134230, 0.181519, 0.833008, -0.555908, 2.258301, -1.586915, -1.647950
2134250, 0.148071, 0.829712, -0.548828, 2.258301, -0.732422, -1.281738
2134270, 0.160767, 0.831787, -0.551758, 2.685547, -1.525879, -0.427246
2134290, 0.156494, 0.831177, -0.548706, 3.051759, -0.793457, -0.061035
2134310, 0.164917, 0.830566, -0.558594, 3.112794, -1.525879, -0.183106
2134330, 0.151245, 0.828369, -0.560791, 2.624512, -1.159668, 0.305176
2134350, 0.164917, 0.828247, -0.555908, 2.502441, 0.000000, 0.305176
2134370, 0.180054, 0.832397, -0.550659, 2.990724, -0.671387, -0.244141
2134390, 0.179077, 0.829468, -0.553223, 3.662110, -2.319336, -1.708985
2134410, 0.174927, 0.829956, -0.555664, 4.089355, -3.173829, -2.563477
2134430, 0.168701, 0.828125, -0.554321, 4.638672, -4.089355, -4.211426
2134450, 0.165405, 0.826904, -0.568726, 5.065918, -5.737307, -4.516602
2134470, 0.128052, 0.817993, -0.580688, 4.150391, -4.760742, -3.967286
2134490, 0.132935, 0.819946, -0.590698, 2.136230, -4.150391, -1.953125
2134510, 0.133911, 0.820557, -0.574585, 0.976563, -3.173829, -0.671387
2134530, 0.132202, 0.827637, -0.560425, 1.037598, -2.441406, 0.427246
2134550, 0.122070, 0.826172, -0.567383, 1.586915, 0.244141, 1.953125
2134570, 0.127686, 0.822632, -0.572144, 1.098633, 2.990724, 3.540040
2134590, 0.166016, 0.825439, -0.561157, 1.403809, 4.760742, 3.906251
2134610, 0.211670, 0.828491, -0.557495, 2.685547, 0.000000, -0.915528
2134630, 0.151001, 0.824951, -0.563477, 3.112794, -0.610352, -2.380371
2134650, 0.134033, 0.819702, -0.576538, 3.112794, 1.708985, -1.220703
2134670, 0.148315, 0.822144, -0.571411, 2.746582, 3.112794, -0.366211
2134690, 0.143921, 0.835571, -0.558960, 3.356935, 3.356935, 0.122070
2134710, 0.117676, 0.838867, -0.510376, 7.385256, 4.150391, 2.624512
2134730, 0.164551, 0.857910, -0.529297, 13.366703, 2.990724, 4.943848
2134750, 0.061523, 0.897827, -0.588867, 16.296387, -3.784181, 9.521484
2134770, -0.071533, 1.506592, -0.304321, 48.217789, -8.789063, 54.565445
2134790, 0.098633, 1.500610, -0.354980, 133.666992, -7.995607, 100.219757
2134810, 0.534058, 0.874146, -0.885254, 130.126953, -14.953617, 108.520538
2134830, 0.628296, 0.438232, -0.591797, 103.271515, -47.912613, 69.335938
2134850, 0.488770, 0.200439, -0.567139, 86.486816, -72.998047, 33.630371
2134870, 0.219360, 0.164917, -0.685669, 59.936539, -78.979492, 20.507813
2134890, 0.039429, 0.250488, -0.793335, 35.583496, -54.870621, 24.230965
2134910, -0.008667, 0.375977, -0.929810, 15.319828, -25.573738, 31.677254
2134930, 0.071045, 0.369263, -0.947266, -5.737307, -7.263186, 28.808601
2134950, 0.157227, 0.392334, -0.818115, -17.272949, -0.549316, 13.366703
2134970, 0.163574, 0.417603, -0.778809, -21.606445, 3.356935, -2.563477
2134990, 0.111328, 0.530273, -0.802368, -23.071297, 5.249023, -13.244633
2135010, 0.099243, 0.719604, -0.801392, -17.517090, 3.601075, -8.361816
2135030, 0.134521, 0.728271, -0.779297, -8.544922, 8.117676, -2.197266
2135050, 0.213013, 0.648682, -0.777466, -6.042482, 14.892582, -2.807618
2135070, 0.273804, 0.627563, -0.764404, -9.033203, 15.991215, -5.981447
2135090, 0.286255, 0.679565, -0.740112, -9.460449, 11.108402, -6.835939
2135110, 0.254028, 0.719849, -0.736328, -5.310059, 6.164553, -3.234864
2135130, 0.240356, 0.715820, -0.737305, 1.098633, 2.929688, 3.601075
2135150, 0.263794, 0.708008, -0.727051, 7.263186, 1.098633, 10.009766
2135170, 0.319946, 0.630615, -0.749634, 9.033203, -3.051759, 9.521484
2135190, 0.316162, 0.581787, -0.744507, 1.525879, -12.390141, -3.601075
2135210, 0.230713, 0.575806, -0.745361, 0.854492, -15.747074, -5.920412
2135230, 0.180420, 0.566895, -0.770508, -2.502441, -12.084965, -4.577637
2135250, 0.161865, 0.578369, -0.754883, -5.126953, -3.662110, -2.990724
2135270, 0.183472, 0.596313, -0.761841, -6.469728, 3.173829, -2.929688
2135290, 0.210693, 0.614014, -0.775391, -8.422852, 4.333496, -4.455566
2135310, 0.219238, 0.660889, -0.777222, -8.728027, 1.586915, -5.493164
2135330, 0.211914, 0.696045, -0.744995, -5.004883, -3.173829, -2.319336
2135350, 0.210449, 0.672729, -0.764648, -1.525879, -1.892090, 1.159668
2135370, 0.248169, 0.643066, -0.737671, -1.403809, 0.061035, 0.610352
2135390, 0.231812, 0.641113, -0.750854, -2.258301, 0.183106, -0.793457
2135410, 0.214478, 0.651367, -0.741455, -1.403809, -0.061035, 0.305176
2135450, 0.223145, 0.635864, -0.758179, -1.708985, 0.061035, 0.122070
2135470, 0.225464, 0.637939, -0.758667, -2.197266, -1.892090, -0.915528
2135490, 0.220825, 0.644043, -0.748047, -2.685547, -2.563477, -2.258301
2135510, 0.202515, 0.643799, -0.752563, -2.746582, -0.488281, -2.197266
2135530, 0.205078, 0.656250, -0.739502, -2.014160, 1.586915, -0.671387
2135550, 0.217529, 0.658691, -0.749878, -0.488281, 3.662110, 0.305176
2135570, 0.233154, 0.655518, -0.745605, 0.000000, 3.295899, 0.610352
2135590, 0.242310, 0.658325, -0.752563, 0.427246, 1.342773, 0.244141
2135610, 0.244629, 0.642456, -0.751587, -0.549316, -1.708985, -1.342773
2135630, 0.224121, 0.641113, -0.754517, -1.831055, -2.685547, -2.624512
2135650, 0.213501, 0.634888, -0.741455, -2.319336, -3.662110, -2.380371
2135670, 0.202026, 0.700562, -0.762451, -1.953125, 0.244141, -1.953125
2135690, 0.211426, 0.659912, -0.713501, 2.563477, -0.427246, 1.342773
2135710, 0.229004, 0.642822, -0.763428, 1.342773, -0.305176, 2.929688
2135730, 0.247192, 0.644775, -0.739746, -0.061035, -0.732422, 0.366211
2135750, 0.222412, 0.648315, -0.748901, 0.305176, -1.647950, -1.831055
2135770, 0.211426, 0.650269, -0.749268, 0.671387, -0.305176, -1.220703
2135790, 0.215332, 0.654419, -0.737915, 1.647950, -0.488281, 0.305176
2135810, 0.216064, 0.636719, -0.753540, 1.342773, 0.366211, 1.342773
2135830, 0.220703, 0.655884, -0.743042, 0.061035, 0.915528, 0.854492
2135850, 0.230347, 0.644165, -0.753418, 0.549316, 0.366211, 0.122070
2135870, 0.236206, 0.652100, -0.758545, -1.953125, -1.525879, -1.892090
2135890, 0.220459, 0.653198, -0.732666, -1.220703, -2.136230, -2.502441
2135910, 0.212524, 0.645264, -0.750977, -0.610352, -1.647950, -1.342773
2135930, 0.216675, 0.656494, -0.747070, -0.915528, -0.122070, -0.549316
2135950, 0.224121, 0.660034, -0.752563, 0.000000, -0.488281, 0.305176
2135970, 0.226929, 0.662231, -0.738770, 0.610352, -1.403809, 0.122070
2135990, 0.223511, 0.654053, -0.738892, 1.342773, -1.892090, 0.488281
2136010, 0.228882, 0.642822, -0.744141, 1.281738, -2.380371, 0.244141
2136030, 0.223877, 0.644043, -0.748047, -0.122070, -1.892090, -0.549316
2136050, 0.222168, 0.649902, -0.739380, 0.122070, -1.159668, -1.098633
2136070, 0.213867, 0.648926, -0.756836, 0.183106, -0.854492, -1.098633
2136090, 0.219116, 0.642944, -0.730713, 0.610352, -2.258301, -0.854492
2136110, 0.221191, 0.643188, -0.757568, 0.122070, -0.610352, -1.159668
2136130, 0.222900, 0.645874, -0.732422, -0.061035, -1.342773, -1.159668
2136150, 0.230225, 0.648193, -0.735107, -0.549316, -2.502441, 0.061035
2136170, 0.228027, 0.651611, -0.741699, -1.342773, -3.051759, -0.610352
2136190, 0.209961, 0.658691, -0.752075, -2.014160, -3.356935, -2.380371
2136210, 0.189331, 0.669434, -0.770508, -2.563477, -3.295899, -3.784181
2136230, 0.167603, 0.684448, -0.775879, -2.014160, -0.427246, -3.845216
2136250, 0.171509, 0.674072, -0.770508, -0.183106, 2.502441, -1.953125
2136270, 0.200195, 0.629761, -0.746216, 0.305176, 4.272461, 1.098633
2136290, 0.237061, 0.618530, -0.731323, -0.305176, 5.310059, 2.746582
2136310, 0.275024, 0.628906, -0.715210, 0.427246, 3.723145, 2.258301
2136330, 0.287476, 0.647461, -0.728149, -1.342773, -3.845216, -1.953125
2136350, 0.257935, 0.659546, -0.710327, -2.685547, -8.850098, -3.723145
2136370, 0.230713, 0.667480, -0.713501, -2.807618, -10.192871, -5.004883
2136390, 0.207886, 0.673828, -0.728638, -3.906251, -10.192871, -5.615236
2136410, 0.169312, 0.697021, -0.736206, -3.662110, -8.483887, -4.394531
2136430, 0.156616, 0.704590, -0.750977, -1.464844, -5.187988, -2.197266
2136450, 0.159058, 0.679932, -0.776611, -0.183106, -3.601075, -2.502441
2136470, 0.145264, 0.650146, -0.783447, -1.708985, -1.892090, -2.319336
2136490, 0.153809, 0.634521, -0.764893, -2.258301, 0.732422, -1.037598
2136510, 0.177979, 0.640137, -0.759521, -3.356935, 6.347658, 0.549316
2136530, 0.206299, 0.657349, -0.737305, -2.502441, 8.422852, 2.014160
2136550, 0.246216, 0.665527, -0.725464, -1.647950, 7.141115, 2.319336
2136570, 0.266602, 0.666016, -0.711548, -1.586915, 3.723145, 1.464844
2136590, 0.264282, 0.672729, -0.707031, -1.953125, -0.427246, 1.098633
2136610, 0.258789, 0.686890, -0.706787, -1.403809, -3.356935, 0.427246
2136630, 0.242310, 0.693481, -0.723999, -0.732422, -6.164553, -1.586915
2136650, 0.210571, 0.694824, -0.733398, 0.305176, -8.728027, -2.868653
2136670, 0.176514, 0.672119, -0.748169, 0.427246, -8.911133, -2.502441
2136690, 0.158325, 0.663696, -0.739014, 0.427246, -5.737307, -0.976563
2136710, 0.160034, 0.654419, -0.760254, 0.122070, 0.488281, 1.037598
2136730, 0.181885, 0.665283, -0.751465, -0.671387, 3.234864, 1.647950
2136750, 0.202515, 0.664551, -0.734619, -0.122070, 3.479005, 1.831055
2136770, 0.218262, 0.669067, -0.736084, 0.000000, 2.319336, 1.342773
2136790, 0.219482, 0.675171, -0.729248, 0.000000, 1.464844, 0.366211
2136810, 0.215576, 0.677979, -0.729736, 0.366211, 0.244141, 0.366211
2136830, 0.210693, 0.679565, -0.727661, 0.732422, -0.610352, 1.037598
2136850, 0.212769, 0.673950, -0.729736, 1.037598, -0.244141, 1.098633
2136870, 0.219238, 0.665894, -0.732300, 0.915528, -1.159668, 0.122070
2136890, 0.203979, 0.669556, -0.732910, 0.488281, -1.098633, -0.610352
2136910, 0.203125, 0.662231, -0.732300, 1.159668, 0.000000, 0.244141
2136930, 0.210083, 0.670288, -0.739136, 1.037598, 0.183106, 0.732422
2136950, 0.211060, 0.668701, -0.740967, 1.220703, -0.549316, 0.366211
2136970, 0.208252, 0.668701, -0.738770, 1.037598, -1.464844, -0.183106
2136990, 0.203003, 0.655151, -0.737305, 0.915528, -1.464844, -1.220703
2137010, 0.194580, 0.656494, -0.741699, -0.305176, -0.671387, -1.464844
2137030, 0.196533, 0.664063, -0.737427, -0.915528, 0.549316, -0.488281
2137050, 0.204224, 0.680542, -0.735229, -0.549316, 1.525879, 0.366211
2137070, 0.210571, 0.679077, -0.732178, 0.671387, 2.136230, 0.549316
2137090, 0.214844, 0.666138, -0.734375, 0.671387, 0.671387, 0.000000
2137110, 0.210083, 0.667236, -0.732544, 0.427246, -0.061035, -0.061035
2137130, 0.208496, 0.660889, -0.734131, 0.427246, 0.183106, 0.488281
2137150, 0.217041, 0.667603, -0.733276, -0.305176, 0.610352, 0.305176
2137170, 0.222412, 0.661865, -0.723999, 0.000000, 0.000000, -0.305176
2137190, 0.219849, 0.677979, -0.727539, 0.183106, -0.366211, -0.305176
2137210, 0.217163, 0.679810, -0.730591, 1.464844, -0.793457, -0.061035
2137230, 0.210083, 0.670044, -0.737793, 1.403809, -1.220703, 0.549316
2137250, 0.211182, 0.657593, -0.738647, 0.793457, -2.441406, -0.305176
2137270, 0.197021, 0.656372, -0.738403, -0.366211, -1.892090, -1.037598
2137290, 0.195923, 0.668945, -0.739868, -0.854492, -0.488281, -0.366211
2137310, 0.201904, 0.675293, -0.734131, 0.122070, 0.427246, 0.244141
2137330, 0.210938, 0.674805, -0.735352, 0.793457, 0.549316, 0.671387
2137350, 0.215332, 0.671143, -0.728638, 0.976563, 0.183106, 0.671387
2137370, 0.219971, 0.665894, -0.729126, 0.854492, -1.098633, 0.793457
2137390, 0.219849, 0.666504, -0.734741, 0.000000, -1.403809, 0.488281
2137410, 0.212402, 0.664307, -0.727051, 0.000000, -1.770020, 0.000000
2137430, 0.209473, 0.675171, -0.729370, 0.366211, -1.892090, 0.976563
2137450, 0.218750, 0.668823, -0.732910, 0.976563, -1.953125, 1.098633
2137470, 0.215454, 0.661255, -0.737305, 0.000000, -2.868653, -0.732422
2137490, 0.197754, 0.659180, -0.736328, -0.183106, -2.807618, -1.159668
2137510, 0.185913, 0.659424, -0.746582, -0.244141, -1.953125, -0.915528
2137530, 0.186646, 0.654541, -0.748779, -1.220703, 0.671387, -0.244141
2137550, 0.205688, 0.665771, -0.740356, -0.732422, 1.831055, -0.061035
2137570, 0.220581, 0.652588, -0.734741, -0.549316, 1.403809, 0.610352
2137590, 0.235596, 0.657227, -0.728882, -1.586915, 0.244141, 0.427246
2137610, 0.236938, 0.668701, -0.721436, -1.464844, -1.403809, -0.854492
2137630, 0.220459, 0.673218, -0.723145, -1.403809, -2.380371, -0.854492
2137650, 0.209473, 0.683594, -0.723633, -1.586915, -2.685547, -0.244141
2137670, 0.199707, 0.675537, -0.734253, -2.258301, -3.601075, -0.122070
2137690, 0.187256, 0.683105, -0.725830, -3.662110, -2.685547, 0.305176
2137710, 0.166992, 0.698975, -0.728760, -2.441406, -0.793457, 1.403809
2137730, 0.178467, 0.693237, -0.736816, 0.122070, 0.366211, 2.441406
2137750, 0.187256, 0.677490, -0.769043, -0.244141, 3.234864, 2.746582
2137770, 0.205688, 0.665405, -0.738892, -0.976563, 1.770020, 3.906251
2137790, 0.230957, 0.629517, -0.717163, -0.549316, 4.089355, 3.112794
2137810, 0.243530, 0.639526, -0.737671, -2.197266, 2.868653, -0.366211
2137830, 0.240234, 0.659546, -0.723633, -4.150391, 0.854492, -2.197266
2137850, 0.219727, 0.692505, -0.708374, -3.234864, -0.732422, -0.915528
2137870, 0.219727, 0.698486, -0.707031, -1.708985, -0.915528, -0.854492
2137890, 0.216064, 0.692627, -0.722290, -2.075195, -1.586915, -1.770020
2137910, 0.213989, 0.684692, -0.720215, -3.112794, -2.807618, -2.929688
2137930, 0.193726, 0.687500, -0.724854, -2.319336, -2.014160, -2.807618
2137950, 0.190430, 0.689697, -0.718628, -0.427246, 0.854492, -0.549316
2137970, 0.196167, 0.667480, -0.747070, 0.488281, 1.464844, 0.061035
2137990, 0.209717, 0.654541, -0.741577, -3.051759, 1.831055, -0.976563
2138010, 0.209351, 0.665405, -0.719482, -4.150391, 1.220703, -2.319336
2138030, 0.217773, 0.687134, -0.718262, -5.615236, 1.159668, -2.868653
2138050, 0.206421, 0.706299, -0.705322, -4.455566, 2.197266, -1.098633
2138070, 0.211914, 0.696045, -0.705322, -2.624512, 2.990724, 0.488281
2138090, 0.219116, 0.676147, -0.717896, -3.784181, 4.394531, 0.427246
2138110, 0.224731, 0.688965, -0.704102, -4.211426, 3.173829, -0.183106
2138130, 0.219482, 0.693970, -0.714966, -3.295899, 1.281738, -0.671387
2138150, 0.214478, 0.697510, -0.720703, -3.295899, 0.305176, -1.342773
2138170, 0.213501, 0.686646, -0.707886, -3.479005, 0.915528, -0.976563
2138190, 0.201416, 0.687622, -0.703613, -2.807618, 0.915528, -1.159668
2138210, 0.197876, 0.687378, -0.713013, -3.479005, 3.112794, 0.183106
2138230, 0.214600, 0.702271, -0.703125, -4.089355, 4.333496, 0.244141
2138250, 0.227783, 0.708496, -0.703125, -3.540040, 3.112794, 0.610352
2138270, 0.230835, 0.710327, -0.697021, -2.441406, 2.075195, 0.854492
2138290, 0.231323, 0.700073, -0.698242, -1.281738, 1.647950, 0.854492
2138310, 0.229248, 0.699951, -0.696655, -1.037598, 0.976563, 0.183106
2138330, 0.224976, 0.696777, -0.697754, -0.549316, 1.403809, 0.366211
2138350, 0.222046, 0.700195, -0.705078, -0.732422, 0.305176, -0.122070
2138370, 0.217529, 0.703369, -0.700684, -1.525879, 0.305176, 0.061035
2138390, 0.214966, 0.699097, -0.696899, -1.159668, 0.732422, 0.061035
2138410, 0.221802, 0.687988, -0.695313, -2.136230, 2.441406, -0.244141
2138430, 0.226318, 0.698853, -0.696045, -2.075195, 2.929688, -0.549316
2138450, 0.231812, 0.717529, -0.700684, -1.464844, 3.417970, 0.061035
2138470, 0.242310, 0.697388, -0.686401, -0.915528, 2.868653, 0.549316
2138490, 0.249878, 0.704956, -0.702515, -1.342773, -0.305176, -1.708985
2138510, 0.233643, 0.701172, -0.698120, -2.624512, -3.906251, -2.624512
2138530, 0.215088, 0.693481, -0.693237, -3.051759, -1.770020, -2.685547
2138550, 0.207275, 0.708008, -0.677490, -2.197266, -0.366211, -1.098633
2138570, 0.215454, 0.705200, -0.703491, -1.037598, 2.441406, -0.305176
2138590, 0.229004, 0.712158, -0.690674, -2.014160, 2.624512, -0.366211
2138610, 0.221802, 0.719849, -0.692871, -0.915528, 3.051759, 0.366211
2138630, 0.233643, 0.712280, -0.692993, -0.549316, 2.685547, 1.403809
2138650, 0.233154, 0.717529, -0.690308, -0.183106, 3.784181, 1.892090
2138670, 0.232666, 0.701660, -0.678833, 0.793457, 2.624512, 1.098633
2138690, 0.239990, 0.696655, -0.700195, -1.220703, 1.342773, -0.183106
2138710, 0.229736, 0.713501, -0.687744, -2.258301, 0.732422, -0.549316
2138730, 0.226440, 0.738647, -0.683228, -0.854492, 2.502441, 1.342773
2138750, 0.235596, 0.713379, -0.670898, 1.953125, 1.953125, 1.831055
2138770, 0.236816, 0.681885, -0.688599, 0.976563, 2.014160, 0.671387
2138790, 0.241455, 0.693848, -0.697021, -1.831055, 2.075195, 0.854492
2138810, 0.230103, 0.724731, -0.680786, -1.220703, 1.403809, 1.464844
2138830, 0.218872, 0.721802, -0.691895, 0.000000, 2.014160, 2.380371
2138850, 0.228149, 0.706055, -0.691162, -0.732422, 2.258301, 2.014160
2138870, 0.230347, 0.700317, -0.679321, -0.793457, 2.014160, 2.197266
2138890, 0.229858, 0.713867, -0.683716, -1.037598, 3.356935, 3.356935
2138910, 0.227539, 0.724854, -0.683716, 0.122070, 4.089355, 5.065918
2138930, 0.230957, 0.729004, -0.678467, 1.403809, 5.981447, 7.507326
2138950, 0.254028, 0.728394, -0.679932, 2.807618, 4.882813, 7.080080
2138970, 0.265747, 0.717896, -0.673340, 3.784181, 2.136230, 5.981447
2138990, 0.263550, 0.699707, -0.691284, 3.356935, -0.793457, 4.516602
2139010, 0.217285, 0.695801, -0.699097, -0.122070, 0.854492, 8.117676
2139030, 0.241821, 0.722656, -0.651611, 1.159668, 6.164553, 12.756351
2139050, 0.259277, 0.715454, -0.680786, 5.432129, 7.812502, 15.014652
2139070, 0.270020, 0.698242, -0.687500, 5.065918, 9.033203, 18.920898
2139090, 0.304199, 0.694702, -0.687500, 3.295899, 6.713869, 19.470215
2139110, 0.311523, 0.736084, -0.672485, 4.943848, 1.098633, 18.920898
2139130, 0.290527, 0.723389, -0.695190, 8.117676, -1.159668, 22.460945
2139150, 0.303955, 0.712891, -0.681519, 8.300781, -1.342773, 26.306160
2139170, 0.332031, 0.656006, -0.692993, 10.925293, -4.089355, 24.353035
2139190, 0.344238, 0.639893, -0.686646, 9.521484, -6.713869, 18.798828
2139210, 0.341675, 0.626953, -0.692871, 9.765625, -9.033203, 15.380863
2139230, 0.341919, 0.628784, -0.713745, 8.117676, -9.399414, 12.756351
2139250, 0.332642, 0.639526, -0.703857, 7.141115, -8.728027, 9.521484
2139270, 0.301147, 0.647461, -0.706055, 8.239746, -7.751467, 8.850098
2139290, 0.275513, 0.630981, -0.728638, 6.774904, -4.577637, 9.399414
2139310, 0.274902, 0.635742, -0.715210, 5.126953, -0.915528, 9.033203
2139330, 0.286865, 0.645996, -0.715576, 4.516602, 1.525879, 7.995607
2139350, 0.294312, 0.663940, -0.715820, 4.943848, 3.417970, 8.422852
2139370, 0.258301, 0.671997, -0.736328, 5.249023, 6.408693, 14.038090
2139390, 0.292969, 0.667236, -0.718018, 6.591799, 10.437012, 18.798828
2139410, 0.311523, 0.641113, -0.720581, 8.361816, 12.329105, 19.592285
2139430, 0.327026, 0.623169, -0.721436, 8.422852, 14.831547, 20.385742
2139450, 0.329834, 0.636963, -0.714722, 9.521484, 15.869144, 23.254402
2139470, 0.330444, 0.624878, -0.727295, 9.643555, 18.432617, 27.648933
2139490, 0.357056, 0.621460, -0.712524, 11.047363, 20.263672, 30.151375
2139510, 0.385254, 0.573120, -0.729858, 10.559082, 22.705086, 28.930672
2139530, 0.419312, 0.566284, -0.703125, 8.850098, 22.399910, 25.756844
2139550, 0.467651, 0.514771, -0.723755, 6.652834, 20.629883, 17.883301
2139570, 0.494141, 0.450928, -0.723145, -1.403809, 17.211914, 8.728027
2139590, 0.515625, 0.352905, -0.699829, -13.854984, 14.709476, -5.981447
2139610, 0.545654, 0.294434, -0.688232, -31.494148, 15.075687, -26.733406
2139630, 0.543701, 0.340210, -0.655640, -49.926773, 13.061527, -45.593277
2139650, 0.488159, 0.568237, -0.605713, -59.875504, 12.268070, -56.945816
2139670, 0.421753, 0.928711, -0.538696, -39.916992, 6.774904, -48.767105
2139690, 0.415894, 1.109619, -0.639893, -6.591799, -0.061035, -26.672371
2139710, 0.434204, 0.948120, -0.698242, 10.375977, -11.230473, -7.934572
2139730, 0.373413, 0.686157, -0.647217, 10.131836, -19.592285, -4.150391
2139750, 0.298828, 0.559082, -0.598389, 1.220703, -12.573246, -7.873537
2139770, 0.314697, 0.647339, -0.632202, -1.525879, -0.122070, -9.155273
2139790, 0.363647, 0.734619, -0.670776, 0.610352, 7.080080, -4.882813
2139810, 0.425537, 0.728271, -0.675537, 4.028320, 4.943848, 1.220703
2139830, 0.445679, 0.649292, -0.659058, 4.211426, -3.479005, 0.915528
2139850, 0.427734, 0.599243, -0.645874, 2.746582, -9.582520, -3.601075
2139870, 0.415894, 0.593872, -0.673340, 0.610352, -10.498047, -10.009766
2139890, 0.378296, 0.632446, -0.680786, -3.234864, -8.239746, -13.671879
2139910, 0.343994, 0.691040, -0.653809, -1.342773, -6.103518, -10.986328
2139930, 0.338867, 0.686401, -0.683228, 0.244141, -6.469728, -4.821777
2139950, 0.332275, 0.682495, -0.663452, -0.244141, -4.882813, -4.089355
2139970, 0.324951, 0.664917, -0.664185, 0.061035, -2.075195, -3.295899
2139990, 0.332275, 0.665405, -0.681030, -1.892090, 1.464844, -2.197266
2140010, 0.344849, 0.683350, -0.663696, -2.014160, 2.197266, -0.305176
2140030, 0.364136, 0.672607, -0.666992, -1.464844, 2.868653, -0.305176
2140050, 0.381104, 0.657593, -0.657104, -2.868653, 1.647950, -2.685547
2140070, 0.373657, 0.677856, -0.647583, -2.868653, 1.037598, -3.662110
2140090, 0.378174, 0.686401, -0.648315, -1.037598, 0.732422, -2.685547
2140110, 0.383545, 0.664673, -0.675415, -1.770020, -0.976563, -3.540040
2140130, 0.354492, 0.700928, -0.638550, -2.868653, -2.014160, -2.624512
2140150, 0.355713, 0.684570, -0.664063, -0.793457, -2.441406, -2.258301
2140170, 0.351318, 0.682739, -0.658813, -1.770020, -2.685547, -2.868653
2140190, 0.337646, 0.683594, -0.655273, -1.159668, -2.136230, -2.380371
2140210, 0.339355, 0.682739, -0.669189, -2.380371, -0.793457, -1.281738
2140230, 0.357910, 0.670288, -0.658936, -3.417970, 0.976563, -1.525879
2140250, 0.366699, 0.674927, -0.645630, -3.784181, 1.464844, -3.112794
2140270, 0.360962, 0.689209, -0.644287, -2.319336, 0.854492, -3.234864
2140290, 0.368774, 0.691162, -0.658325, -2.136230, -0.549316, -3.417970
2140310, 0.385620, 0.686401, -0.646362, -1.525879, -4.760742, -7.385256
2140330, 0.368896, 0.679932, -0.649170, -2.319336, -8.850098, -10.009766
2140350, 0.333496, 0.695679, -0.645508, -3.601075, -9.094238, -9.338379
2140370, 0.319214, 0.712769, -0.650635, -3.112794, -6.530764, -8.300781
2140390, 0.315186, 0.718994, -0.648071, -2.075195, -4.272461, -6.774904
2140410, 0.299561, 0.715698, -0.649170, -0.732422, -1.525879, -3.356935
2140430, 0.302368, 0.704712, -0.657715, -1.037598, 1.525879, -0.244141
2140450, 0.325806, 0.695313, -0.647339, -1.525879, 3.601075, -0.061035
2140470, 0.342773, 0.705200, -0.651001, -0.610352, 3.723145, -1.953125
2140490, 0.344116, 0.692505, -0.660522, -1.342773, 1.892090, -3.540040
2140510, 0.333008, 0.706665, -0.636108, -1.342773, 1.770020, -3.173829
2140530, 0.341797, 0.712402, -0.647461, -1.037598, 5.676271, -2.990724
2140550, 0.363770, 0.753418, -0.633545, 0.915528, 6.286623, -3.845216
2140570, 0.367310, 0.745850, -0.637939, 4.760742, 3.723145, -7.690432
2140590, 0.324585, 0.700928, -0.666382, 2.441406, 3.784181, -11.291508
2140610, 0.290649, 0.716064, -0.641113, -1.281738, 15.319828, -13.854984
2140630, 0.305176, 0.766968, -0.599854, 1.281738, 28.686531, -15.930180
2140650, 0.360474, 0.769653, -0.567871, 10.864258, 33.386230, -18.432617
2140670, 0.406860, 0.600464, -0.641235, 10.803223, 20.629883, -16.601563
2140690, 0.413940, 0.560425, -0.661133, -14.465336, -2.502441, -21.179199
2140710, 0.325806, 0.668213, -0.585571, -12.817387, -15.441898, -23.376472
2140730, 0.268555, 0.676758, -0.622925, -3.784181, -13.671879, -19.165039
2140750, 0.239502, 0.674683, -0.711426, -5.737307, -3.051759, -16.418457
2140770, 0.226440, 0.745483, -0.680176, -8.666992, 5.432129, -8.789063
2140790, 0.265015, 0.751099, -0.664917, -6.469728, 8.605957, -5.920412
2140810, 0.310059, 0.739136, -0.647217, -8.422852, 6.958010, -6.835939
2140830, 0.329956, 0.750977, -0.592285, -7.263186, 3.845216, -8.239746
2140850, 0.349731, 0.732300, -0.594360, -7.202150, 0.915528, -7.568361
2140870, 0.367432, 0.749634, -0.586548, -9.765625, 0.915528, -9.033203
2140890, 0.351318, 0.810181, -0.578491, -8.605957, -3.173829, -9.155273
2140910, 0.321167, 0.826660, -0.580811, -2.746582, -8.911133, -6.652834
2140930, 0.292358, 0.787109, -0.621826, -0.549316, -9.277344, -6.774904
2140950, 0.264038, 0.756104, -0.612305, -1.464844, -8.178711, -6.103518
2140970, 0.241699, 0.756348, -0.610596, -0.915528, -5.493164, -4.333496
2140990, 0.242065, 0.767700, -0.624146, -0.122070, -3.051759, -2.014160
2141010, 0.248291, 0.760620, -0.624878, -0.305176, -0.366211, -0.671387
2141030, 0.253906, 0.751709, -0.622925, -1.647950, 2.990724, 0.122070
2141050, 0.271484, 0.763306, -0.593750, -1.647950, 5.615236, 2.075195
2141070, 0.323120, 0.760986, -0.601685, 0.915528, 4.516602, 2.502441
2141090, 0.338501, 0.762329, -0.604614, 1.403809, 1.647950, 0.122070
2141110, 0.323730, 0.756714, -0.607544, 2.380371, -2.502441, -2.136230
2141130, 0.298340, 0.756714, -0.609985, 2.685547, -4.089355, -3.234864
2141150, 0.281372, 0.759766, -0.605347, 4.028320, -4.577637, -1.831055
2141170, 0.281738, 0.741699, -0.625244, 3.112794, -3.906251, -1.525879
2141190, 0.282227, 0.749512, -0.621460, 1.586915, -4.882813, -1.708985
2141210, 0.278564, 0.761963, -0.612061, 1.342773, -5.554201, -1.770020
2141230, 0.266968, 0.757568, -0.613770, 2.075195, -4.760742, -1.037598
2141250, 0.262695, 0.753784, -0.611450, 1.831055, -3.051759, 0.549316
2141270, 0.289063, 0.758423, -0.605347, 3.967286, -0.854492, 1.892090
2141290, 0.301880, 0.755859, -0.615845, 4.333496, -1.342773, 1.586915
2141310, 0.311279, 0.739014, -0.622803, 3.906251, -4.272461, 0.122070
2141330, 0.292480, 0.738037, -0.631226, 2.258301, -5.859377, -1.464844
2141350, 0.284180, 0.745117, -0.617188, 1.770020, -5.371094, -2.014160
2141370, 0.282349, 0.744019, -0.618164, 1.953125, -4.394531, -2.502441
2141390, 0.279663, 0.743652, -0.611938, 2.197266, -3.417970, -2.380371
2141410, 0.278564, 0.741821, -0.630127, 2.197266, -3.417970, -3.173829
2141430, 0.273315, 0.746948, -0.632202, 0.915528, -3.845216, -3.112794
2141450, 0.263306, 0.748657, -0.623901, 1.220703, -3.784181, -1.892090
2141470, 0.254395, 0.752197, -0.627075, 1.525879, -2.502441, -1.342773
2141490, 0.255371, 0.755615, -0.629761, 1.647950, -0.976563, -0.366211
2141510, 0.265625, 0.749512, -0.625854, 1.586915, 0.183106, -0.061035
2141530, 0.269775, 0.748047, -0.623047, 1.403809, 0.244141, 0.305176
2141550, 0.280151, 0.748413, -0.625366, 1.892090, -0.244141, 0.366211
2141570, 0.293091, 0.741211, -0.630005, 1.281738, -1.342773, -0.488281
2141590, 0.291870, 0.733398, -0.621094, 0.793457, -2.807618, -1.586915
2141610, 0.299438, 0.746582, -0.615234, 1.525879, -2.563477, -2.380371
2141630, 0.298828, 0.753906, -0.630493, 2.441406, -4.638672, -4.272461
2141650, 0.262817, 0.754150, -0.628662, 2.685547, -8.483887, -6.774904
2141670, 0.234985, 0.750366, -0.630859, 3.234864, -8.605957, -5.615236
2141690, 0.226807, 0.745361, -0.632935, 2.929688, -4.333496, -3.601075
2141710, 0.231812, 0.746460, -0.634644, 3.051759, -1.098633, -1.647950
2141730, 0.241089, 0.735596, -0.644531, 2.197266, 0.366211, 0.305176
2141750, 0.259888, 0.736938, -0.651611, 0.488281, 0.366211, -0.244141
2141770, 0.267700, 0.736084, -0.644531, -1.525879, -1.770020, -1.464844
2141790, 0.257080, 0.747314, -0.629517, -1.953125, -3.112794, -2.502441
2141810, 0.244751, 0.761841, -0.627075, -0.915528, -1.892090, -1.770020
2141830, 0.241821, 0.754150, -0.627808, 2.075195, 1.220703, 0.000000
2141850, 0.256348, 0.728882, -0.635010, 2.014160, 1.892090, 0.183106
2141870, 0.262085, 0.736328, -0.642822, 0.976563, 1.892090, -0.305176
2141890, 0.261963, 0.740967, -0.636719, 1.159668, 1.586915, -0.122070
2141910, 0.265503, 0.744995, -0.640259, 0.976563, -0.183106, 0.488281
2141930, 0.266479, 0.746216, -0.630981, 0.427246, -1.403809, 0.183106
2141950, 0.258911, 0.755371, -0.632568, 0.183106, -2.258301, 0.305176
2141970, 0.254761, 0.760254, -0.632324, 0.976563, -2.502441, -0.305176
2141990, 0.245361, 0.747437, -0.640991, 0.854492, -3.051759, 0.122070
2142010, 0.242798, 0.753906, -0.625488, 0.366211, -0.610352, 1.831055
2142030, 0.255249, 0.748657, -0.638428, 2.075195, 0.427246, 2.075195
2142050, 0.265137, 0.740112, -0.639771, 1.708985, -0.549316, 2.746582
2142070, 0.270020, 0.732056, -0.641113, 1.220703, -1.831055, 1.892090
2142090, 0.258667, 0.729492, -0.640625, 0.305176, -1.892090, 1.098633
2142110, 0.254883, 0.741455, -0.635376, 0.488281, -0.732422, 1.403809
2142130, 0.260498, 0.735962, -0.640381, 0.793457, 0.183106, 1.159668
2142150, 0.259766, 0.737427, -0.646973, -0.183106, 0.122070, 0.488281
2142170, 0.259888, 0.749756, -0.636353, -0.244141, -0.549316, 0.488281
2142190, 0.270386, 0.744751, -0.633301, 0.183106, -1.708985, 0.488281
2142210, 0.266602, 0.745483, -0.633545, -0.244141, -2.441406, -0.793457
2142230, 0.257202, 0.746826, -0.634155, 0.122070, -2.197266, -0.854492
2142250, 0.252197, 0.752441, -0.634521, 0.732422, -1.892090, 0.183106
2142270, 0.255981, 0.743042, -0.634399, 1.525879, -1.403809, 0.671387
2142290, 0.258057, 0.734375, -0.638306, 1.098633, -1.037598, 1.037598
2142310, 0.259155, 0.732300, -0.641724, 0.427246, -0.061035, 1.159668
2142330, 0.260498, 0.737549, -0.645996, -0.305176, 0.366211, 0.305176
2142350, 0.258179, 0.748901, -0.638672, -0.305176, 0.000000, 0.061035
2142370, 0.264160, 0.748657, -0.635864, 0.122070, -0.915528, 0.000000
2142390, 0.269287, 0.743530, -0.633911, 0.122070, -2.014160, -0.671387
2142410, 0.263184, 0.741211, -0.637329, 0.366211, -2.746582, -1.098633
2142430, 0.253296, 0.738281, -0.638306, 0.061035, -2.197266, -1.342773
2142450, 0.244263, 0.748169, -0.635986, 0.427246, -1.098633, -0.427246
2142470, 0.253174, 0.739014, -0.642944, 0.244141, -0.488281, 0.183106
2142490, 0.261230, 0.739502, -0.632080, -0.427246, 0.000000, -0.183106
2142510, 0.261963, 0.747070, -0.631714, 0.244141, 0.183106, -0.244141
2142530, 0.264771, 0.752441, -0.639893, 0.610352, -0.915528, 0.244141
2142550, 0.260498, 0.749634, -0.639282, 0.976563, -2.014160, 0.427246
2142570, 0.253906, 0.738403, -0.642334, 0.366211, -2.014160, -0.122070
2142590, 0.248047, 0.738892, -0.632935, -0.366211, -0.122070, -0.183106
2142610, 0.252319, 0.745239, -0.632813, 0.427246, 1.525879, 0.610352
2142630, 0.259155, 0.749146, -0.633179, 1.220703, 1.953125, 1.525879
2142650, 0.268677, 0.745972, -0.638062, 1.525879, 1.037598, 1.525879
2142670, 0.272705, 0.741333, -0.641113, 1.098633, -0.976563, 0.488281
2142690, 0.267944, 0.741333, -0.640015, 0.549316, -2.197266, -0.549316
2142710, 0.258545, 0.741821, -0.637451, 0.488281, -2.563477, -0.610352
2142730, 0.248535, 0.740356, -0.639648, 0.427246, -1.342773, 0.061035
2142750, 0.255859, 0.735352, -0.637329, 0.061035, 0.061035, 0.366211
2142770, 0.259033, 0.743164, -0.639648, 0.000000, 0.366211, -0.122070
2142790, 0.261230, 0.741333, -0.638916, 0.366211, -0.122070, 0.000000
2142810, 0.266846, 0.740112, -0.639526, 0.000000, -0.915528, -0.061035
2142830, 0.265015, 0.740112, -0.635498, 0.122070, -0.793457, -0.305176
2142850, 0.265503, 0.740234, -0.636230, 0.061035, -0.915528, -0.305176
2142870, 0.262817, 0.736694, -0.642944, -0.061035, -1.464844, -0.732422
2142890, 0.261719, 0.739014, -0.638550, -0.671387, -1.953125, -1.159668
2142910, 0.260498, 0.744263, -0.633179, -0.244141, -1.953125, -0.732422
2142930, 0.255981, 0.743530, -0.634033, 0.244141, -1.525879, -0.671387
2142950, 0.252319, 0.744263, -0.639404, 0.122070, -0.732422, -0.549316
2142970, 0.254517, 0.745972, -0.635742, 0.122070, -0.183106, -0.732422
2142990, 0.259888, 0.753296, -0.640137, 0.061035, -0.976563, -0.671387
2143010, 0.261230, 0.747925, -0.636963, 0.366211, -1.708985, -0.366211
2143030, 0.257080, 0.739380, -0.635620, 0.305176, -1.647950, -0.305176
2143050, 0.252441, 0.742920, -0.637939, 0.000000, -1.342773, 0.061035
2143070, 0.258057, 0.750122, -0.636597, 0.183106, -1.403809, 0.122070
2143090, 0.255981, 0.747070, -0.638916, 0.122070, -1.342773, -0.244141
2143110, 0.252441, 0.740356, -0.635376, -0.061035, -1.342773, -0.305176
2143130, 0.253784, 0.746582, -0.636841, 0.122070, -1.098633, -0.183106
2143150, 0.256958, 0.747192, -0.635132, 0.793457, -0.305176, 0.427246
2143170, 0.259521, 0.746094, -0.636597, 1.342773, -0.488281, 0.427246
2143190, 0.260620, 0.739868, -0.640381, 1.037598, -0.671387, -0.183106
2143210, 0.255737, 0.741577, -0.640625, 0.854492, -0.976563, -0.366211
2143230, 0.256714, 0.736938, -0.644409, 0.122070, -0.976563, -0.427246
2143250, 0.253174, 0.743896, -0.637817, -0.366211, -0.366211, -0.305176
2143270, 0.256470, 0.742798, -0.635620, 0.000000, -0.610352, -0.305176
2143290, 0.255615, 0.747437, -0.634644, 0.183106, -0.549316, -0.244141
2143310, 0.255615, 0.748779, -0.633667, 0.793457, -0.427246, 0.122070
2143330, 0.259888, 0.742432, -0.637207, 0.854492, -0.610352, 0.305176
2143350, 0.258667, 0.742798, -0.639404, 0.793457, -0.732422, 0.000000
2143370, 0.254761, 0.735718, -0.641357, 0.366211, -1.037598, 0.000000
2143390, 0.250977, 0.744141, -0.638794, 0.122070, -0.732422, -0.061035
2143410, 0.253174, 0.744263, -0.639282, 0.000000, -0.122070, 0.305176
2143430, 0.260254, 0.743774, -0.633911, -0.061035, 0.183106, 0.671387
2143450, 0.262451, 0.742310, -0.639893, 0.000000, -0.244141, 0.122070
2143470, 0.263184, 0.744995, -0.636230, 0.000000, -1.525879, -0.183106
2143490, 0.255493, 0.747070, -0.637817, 0.366211, -2.075195, -0.122070
2143510, 0.254639, 0.745117, -0.637573, 0.366211, -1.403809, 0.000000
2143530, 0.254395, 0.740234, -0.634155, 0.610352, 0.061035, 0.244141
2143550, 0.256836, 0.745117, -0.639404, 0.610352, 0.244141, 0.549316
2143570, 0.262329, 0.744995, -0.641357, 0.610352, -0.793457, 0.183106
2143590, 0.259277, 0.740967, -0.641846, 0.122070, -1.525879, -0.122070
2143610, 0.259399, 0.743042, -0.636230, -0.061035, -1.647950, -0.488281
2143630, 0.254517, 0.746826, -0.635620, 0.244141, -0.732422, -0.488281
2143650, 0.252686, 0.745605, -0.632935, 0.732422, -0.122070, 0.244141
2143670, 0.257690, 0.739746, -0.638916, 0.976563, 0.244141, 0.305176
2143690, 0.261353, 0.738403, -0.642944, 0.305176, -0.793457, -0.061035
2143710, 0.259888, 0.738770, -0.639526, 0.000000, -1.647950, -0.549316
2143730, 0.254517, 0.742676, -0.633545, 0.122070, -0.915528, 0.183106
2143750, 0.259644, 0.747070, -0.635864, 0.793457, -0.122070, 0.610352
2143770, 0.262573, 0.748291, -0.641235, 0.976563, -0.183106, 0.427246
2143790, 0.257568, 0.745117, -0.638184, 1.037598, -1.037598, 0.244141
2143810, 0.262939, 0.740479, -0.636841, 1.220703, -1.464844, -0.366211
2143830, 0.259521, 0.733765, -0.633423, 1.098633, -0.915528, -0.671387
2143850, 0.256592, 0.734497, -0.639038, 0.854492, -0.122070, -0.854492
2143870, 0.259521, 0.734741, -0.643799, 0.000000, -0.183106, -0.915528
2143890, 0.258179, 0.744019, -0.642456, -0.244141, -0.671387, -1.037598
2143910, 0.253052, 0.752563, -0.634399, -0.061035, -1.220703, 0.000000
2143930, 0.251221, 0.755371, -0.634033, 0.854492, -1.098633, 0.183106
2143950, 0.247070, 0.756592, -0.638672, 1.464844, -1.037598, 0.549316
2143970, 0.246582, 0.751831, -0.639648, 2.075195, -0.549316, 1.708985
2143990, 0.255615, 0.744263, -0.639038, 2.258301, -0.244141, 2.563477
2144010, 0.265747, 0.732666, -0.641968, 1.770020, -0.793457, 2.075195
2144030, 0.269653, 0.730469, -0.639038, 1.037598, -1.098633, 1.403809
2144050, 0.266602, 0.721191, -0.642944, 0.732422, -2.563477, 1.831055
2144070, 0.269653, 0.728271, -0.639771, 0.549316, -2.258301, 1.159668
2144090, 0.250000, 0.738403, -0.647095, 0.366211, -1.342773, 0.610352
2144110, 0.235474, 0.745361, -0.643066, 1.525879, 0.427246, 0.976563
2144130, 0.245728, 0.740845, -0.643799, 0.854492, 2.380371, 2.746582
2144150, 0.263672, 0.740112, -0.642334, 0.793457, 2.868653, 3.173829
2144170, 0.277100, 0.734253, -0.647949, -0.122070, 1.770020, 1.342773
2144190, 0.271118, 0.757324, -0.640869, -0.366211, -0.610352, -0.366211
2144210, 0.240723, 0.796265, -0.631714, 3.051759, -1.708985, 2.075195
2144230, 0.239746, 0.787231, -0.631226, 8.239746, -0.244141, 6.347658
2144250, 0.266235, 0.739746, -0.638550, 9.399414, 1.098633, 7.812502
2144270, 0.273804, 0.721680, -0.647827, 8.300781, 0.976563, 7.141115
2144290, 0.265991, 0.744873, -0.657715, 8.117676, -1.525879, 9.765625
2144310, 0.229248, 0.749756, -0.657593, 7.324221, 0.793457, 14.831547
2144330, 0.262695, 0.741455, -0.644775, 10.559082, 3.601075, 16.906738
2144350, 0.275513, 0.717163, -0.666626, 10.131836, 4.394531, 17.150879
2144370, 0.274048, 0.749268, -0.651001, 10.192871, 5.310059, 18.981934
2144390, 0.265015, 0.788086, -0.656128, 15.197758, 5.798342, 23.437508
2144410, 0.255127, 0.742310, -0.691528, 18.859863, 4.333496, 27.282722
2144430, 0.249512, 0.670654, -0.689575, 17.211914, 7.568361, 28.869637
2144450, 0.276489, 0.630859, -0.665039, 16.357422, 13.366703, 26.123055
2144470, 0.293213, 0.635254, -0.664307, 17.211914, 19.775391, 20.629883
2144490, 0.316528, 0.666504, -0.689087, 25.207527, 27.221687, 13.122562
2144510, 0.349731, 0.581421, -0.729004, 25.512703, 25.817879, 9.643555
2144530, 0.388916, 0.433228, -0.763794, 9.826660, 20.935059, 6.042482
2144550, 0.429932, 0.357178, -0.730347, -17.944336, 19.836426, 0.488281
2144570, 0.441040, 0.367310, -0.663696, -39.794922, 19.287109, -13.671879
2144590, 0.425537, 0.501709, -0.610596, -56.030289, 21.850586, -22.888191
2144610, 0.398071, 0.855591, -0.541382, -50.903336, 22.155769, -22.521980
2144630, 0.361450, 1.096191, -0.547485, -20.690918, 23.071297, -2.319336
2144650, 0.450684, 1.116333, -0.609863, 5.859377, 21.789551, 25.817879
2144670, 0.545166, 0.783081, -0.590576, 22.216805, -8.178711, 35.827637
2144690, 0.480957, 0.598145, -0.594360, 15.136723, -22.460945, 21.972656
2144710, 0.378052, 0.544312, -0.551758, 6.103518, -22.033691, 17.578125
2144730, 0.362061, 0.551147, -0.578857, 1.403809, -11.291508, 23.681648
2144750, 0.495117, 0.472778, -0.673706, -9.399414, -0.427246, 20.324707
2144770, 0.571777, 0.471680, -0.673096, -28.320320, -4.211426, 0.793457
2144790, 0.482422, 0.516235, -0.596191, -35.461426, -14.587406, -22.033691
2144810, 0.377930, 0.616943, -0.615234, -39.306641, -15.258793, -34.545898
2144830, 0.309814, 0.959351, -0.561035, -26.367195, -12.756351, -25.146492
2144850, 0.344238, 1.091797, -0.609375, 2.441406, -7.812502, 0.244141
2144870, 0.440674, 0.776855, -0.633179, 12.512211, -18.920898, 18.798828
2144890, 0.411987, 0.662720, -0.580200, 5.249023, -26.428230, 18.920898
2144910, 0.413574, 0.665283, -0.530029, 2.746582, -28.015144, 17.395020
2144930, 0.432739, 0.675659, -0.562500, 4.821777, -25.451668, 15.502934
2144950, 0.448486, 0.689697, -0.610596, 5.371094, -20.446777, 11.291508
2144970, 0.462646, 0.704712, -0.625000, 6.469728, -23.315437, 6.896975
2144990, 0.410278, 0.726563, -0.627197, 10.681152, -32.104492, 4.150391
2145010, 0.366577, 0.643677, -0.689819, 10.192871, -39.550781, 3.601075
2145030, 0.303101, 0.618896, -0.685791, 5.126953, -36.254883, 3.356935
2145050, 0.192261, 0.640015, -0.668701, 1.403809, -23.498543, 11.291508
2145070, 0.226318, 0.655518, -0.677612, 2.624512, -8.666992, 17.639160
2145090, 0.279297, 0.658813, -0.709351, 4.089355, -1.098633, 16.601563
2145110, 0.299316, 0.621704, -0.727417, 0.244141, -0.549316, 11.230473
2145130, 0.313965, 0.641235, -0.693481, -2.441406, -1.953125, 8.605957
2145150, 0.331421, 0.600586, -0.718140, -2.990724, -4.455566, 4.333496
2145170, 0.326294, 0.601440, -0.711304, -8.911133, -3.601075, 0.366211
2145190, 0.343506, 0.617798, -0.661255, -9.155273, 1.098633, -3.723145
2145210, 0.377197, 0.618774, -0.664673, -10.375977, 3.662110, -8.239746
2145230, 0.392700, 0.636475, -0.658936, -13.610844, 4.699707, -14.160160
2145250, 0.405151, 0.696533, -0.634399, -13.366703, 2.136230, -18.981934
2145270, 0.398560, 0.701538, -0.648926, -12.390141, -0.061035, -22.460945
2145290, 0.371338, 0.726318, -0.632568, -12.939457, -3.051759, -23.254402
2145310, 0.346558, 0.765259, -0.610352, -8.483887, -6.225588, -21.545410
2145330, 0.329712, 0.762207, -0.621582, -3.417970, -7.629396, -18.859863
2145350, 0.370239, 0.741821, -0.612183, 0.427246, -7.751467, -20.019531
2145370, 0.330933, 0.723389, -0.637329, 0.000000, -10.375977, -20.690918
2145390, 0.308350, 0.724976, -0.632202, -1.281738, -10.742188, -18.005371
2145410, 0.311035, 0.747437, -0.631348, 0.366211, -10.620117, -17.089844
2145430, 0.283813, 0.735229, -0.660767, 3.356935, -11.779789, -17.578125
2145450, 0.251221, 0.720825, -0.672485, 2.319336, -11.901859, -16.784668
2145470, 0.224731, 0.715576, -0.675171, 1.525879, -11.474613, -14.831547
2145490, 0.201660, 0.720337, -0.674805, -0.183106, -6.530764, -10.559082
2145510, 0.196533, 0.740845, -0.661133, 0.000000, -1.525879, -3.112794
2145530, 0.220215, 0.730225, -0.662109, -0.183106, 3.845216, 1.159668
2145550, 0.259644, 0.720825, -0.650146, -1.220703, 5.493164, 1.159668
2145570, 0.282959, 0.725952, -0.648315, -2.136230, 4.333496, -0.244141
2145590, 0.298584, 0.744629, -0.642578, -2.380371, 2.136230, -1.037598
2145610, 0.297607, 0.753418, -0.629395, -0.305176, -0.061035, -0.427246
2145630, 0.291748, 0.712646, -0.643311, 0.854492, -0.915528, -1.220703
2145650, 0.280396, 0.701294, -0.642578, -0.061035, -2.075195, -2.685547
2145670, 0.260620, 0.720703, -0.678711, -2.502441, -0.915528, -3.906251
2145690, 0.252197, 0.748657, -0.648804, -2.380371, -2.014160, -2.868653
2145710, 0.239014, 0.734375, -0.646240, 0.061035, -0.122070, -0.244141
2145730, 0.266479, 0.716919, -0.652100, -0.488281, 1.708985, 0.793457
2145750, 0.279785, 0.714722, -0.643921, -1.525879, 2.441406, -0.549316
2145770, 0.278198, 0.734985, -0.644653, -1.831055, 2.197266, -0.915528
2145790, 0.281372, 0.751709, -0.639404, -1.220703, 1.281738, -0.793457
2145810, 0.274780, 0.734863, -0.648682, -0.061035, -0.549316, -1.342773
2145830, 0.271729, 0.729248, -0.649780, -1.464844, -1.098633, -2.319336
2145850, 0.259399, 0.736938, -0.643555, -1.647950, -0.549316, -2.624512
2145870, 0.259888, 0.743652, -0.635010, -0.854492, 0.549316, -0.305176
2145890, 0.278564, 0.733521, -0.633911, 0.549316, 1.403809, 0.244141
2145910, 0.286255, 0.728882, -0.645630, 0.366211, 0.488281, -1.281738
2145930, 0.278198, 0.731812, -0.645142, -0.183106, -0.915528, -2.380371
2145950, 0.263672, 0.736938, -0.639526, -0.122070, -1.342773, -1.403809
2145970, 0.265503, 0.732788, -0.646362, -0.122070, -1.342773, -1.770020
2145990, 0.266235, 0.712036, -0.647827, -0.976563, -1.770020, -3.784181
2146010, 0.250000, 0.751587, -0.634399, -2.014160, 1.647950, 0.061035
2146030, 0.283325, 0.745483, -0.643799, -0.793457, 1.037598, -0.793457
2146050, 0.273926, 0.749756, -0.646484, -1.770020, -1.037598, -1.708985
2146070, 0.265137, 0.747559, -0.629028, -0.915528, -2.136230, -1.892090
2146090, 0.266235, 0.738281, -0.637939, -1.037598, -2.136230, -1.831055
2146110, 0.268555, 0.741943, -0.633423, -0.976563, -1.647950, -2.807618
2146130, 0.268555, 0.750366, -0.629761, 0.244141, -0.671387, -2.807618
2146150, 0.271362, 0.742432, -0.645020, 0.854492, -2.563477, -1.770020
2146170, 0.267700, 0.737061, -0.644409, -0.427246, -3.173829, -0.427246
2146190, 0.257324, 0.732300, -0.640381, -0.549316, -3.540040, -1.892090
2146210, 0.253052, 0.734985, -0.644287, -2.319336, -2.380371, -1.098633
2146230, 0.261963, 0.757690, -0.628296, -2.502441, -1.342773, 0.549316
2146250, 0.273438, 0.756348, -0.627808, -0.122070, -1.647950, 0.061035
2146270, 0.275513, 0.737183, -0.645874, -0.610352, -3.173829, -1.281738
2146290, 0.255737, 0.746948, -0.643433, -1.953125, -4.577637, -2.136230
2146310, 0.239136, 0.749512, -0.636230, -1.708985, -4.211426, -0.549316
2146330, 0.250977, 0.735596, -0.627930, -1.220703, -3.173829, -0.122070
2146350, 0.244507, 0.740234, -0.648071, -1.037598, -0.488281, -1.525879
2146370, 0.241699, 0.738159, -0.643433, -2.380371, -1.098633, -0.122070
2146390, 0.252197, 0.742310, -0.632935, -2.136230, 1.037598, 1.647950
2146410, 0.271362, 0.746460, -0.634033, -2.258301, 1.708985, 0.244141
2146430, 0.268188, 0.750122, -0.623169, -0.915528, 1.464844, -1.953125
2146450, 0.255005, 0.737671, -0.646362, -0.610352, -0.122070, -3.601075
2146470, 0.245728, 0.751953, -0.640869, -1.953125, -1.098633, -2.624512
2146490, 0.239502, 0.744995, -0.629517, -0.305176, 0.976563, -2.441406
2146510, 0.236938, 0.741821, -0.645142, -1.464844, 3.234864, -1.708985
2146530, 0.240723, 0.753784, -0.629272, -1.342773, 5.187988, -1.647950
2146550, 0.254395, 0.759033, -0.632202, -0.488281, 5.981447, -0.305176
2146570, 0.295532, 0.763794, -0.619873, -0.549316, 2.197266, -1.647950
2146590, 0.286499, 0.752563, -0.620728, 0.732422, -2.319336, -4.760742
2146610, 0.263550, 0.756470, -0.629517, 1.892090, -5.371094, -8.361816
2146630, 0.209839, 0.744507, -0.659424, 0.305176, -5.554201, -6.286623
2146650, 0.231445, 0.739624, -0.633179, -3.784181, 0.061035, -2.685547
2146670, 0.230713, 0.760864, -0.601685, -3.112794, 3.784181, -1.831055
2146690, 0.265259, 0.777222, -0.604614, 0.976563, 4.516602, -1.464844
2146710, 0.260498, 0.759521, -0.664917, -0.671387, 2.075195, -5.554201
2146730, 0.251343, 0.807007, -0.609619, -3.356935, -0.915528, -7.995607
2146750, 0.253174, 0.804565, -0.595459, 0.000000, 0.244141, 0.305176
2146770, 0.382690, 0.772339, -0.569580, 4.821777, 1.220703, -2.258301
2146790, 0.386353, 0.696167, -0.636597, 6.530764, -9.887695, -17.456055
2146810, 0.231567, 0.678101, -0.678711, -6.347658, -15.014652, -24.292000
2146830, 0.138672, 0.772217, -0.587769, -8.422852, -9.704590, -20.080566
2146850, 0.123901, 0.799927, -0.608521, -2.624512, 0.305176, -15.747074
2146870, 0.120361, 0.761353, -0.653198, 1.281738, 8.361816, -17.028809
2146890, 0.061768, 0.660645, -0.734863, -4.943848, 15.075687, -17.883301
2146910, -0.009155, 0.647583, -0.736572, -23.559578, 23.254402, -11.657719
2146930, 0.003906, 0.836426, -0.626221, -24.475105, 35.156250, 2.441406
2146950, 0.203369, 0.852905, -0.653076, -11.962894, 45.288101, 6.774904
2146970, 0.257690, 0.758179, -0.692261, -2.868653, 37.414551, -18.615723
2146990, 0.120972, 0.667236, -0.703613, -9.338379, 31.127937, -27.221687
2147010, 0.115601, 0.651001, -0.603760, -18.615723, 33.752441, -8.544922
2147030, 0.178589, 0.752441, -0.554321, -28.137215, 50.109879, 15.563969
2147050, 0.348267, 0.808105, -0.494751, -30.456551, 60.913101, 25.268562
2147070, 0.524292, 0.863159, -0.437866, -23.742683, 57.800308, 24.169930
2147090, 0.620850, 0.900513, -0.428223, -13.549809, 36.682129, 16.967773
2147110, 0.609497, 0.868896, -0.449219, -4.638672, 7.507326, 6.652834
2147130, 0.553589, 0.808472, -0.493042, -5.126953, -18.188477, -9.948730
2147150, 0.390747, 0.804199, -0.421021, -5.981447, -38.452148, -22.033691
2147170, 0.250854, 0.798096, -0.404663, 3.112794, -33.142090, -7.080080
2147190, 0.188599, 0.686401, -0.503418, 1.953125, -22.644051, 7.080080
2147210, 0.208374, 0.642822, -0.601440, -17.395020, -9.033203, 4.333496
2147230, 0.223877, 0.871216, -0.533691, -25.085457, -3.784181, 0.549316
2147250, 0.297119, 0.989380, -0.509888, -8.850098, -15.380863, -2.197266
2147270, 0.233032, 0.813110, -0.612061, -9.948730, -12.023930, -2.563477
2147290, 0.151489, 0.819092, -0.547852, -17.517090, 1.037598, 0.122070
2147310, 0.208496, 0.882324, -0.498413, -16.113281, 11.596684, 4.516602
2147330, 0.208984, 0.859741, -0.437866, -3.906251, 20.080566, 3.845216
2147350, 0.223999, 0.852539, -0.444214, 1.892090, 21.911621, 1.525879
2147370, 0.232666, 0.876953, -0.451904, 3.662110, 23.193367, -0.488281
2147390, 0.343262, 0.881348, -0.447510, 5.737307, 22.216805, -1.586915
2147410, 0.337646, 0.846436, -0.442871, 8.117676, 17.211914, -12.756351
2147430, 0.252930, 0.876465, -0.390259, 10.864258, 15.075687, -8.544922
2147450, 0.345703, 0.862671, -0.451538, 11.413578, 13.793949, -6.042482
2147470, 0.374878, 0.871338, -0.476318, 7.385256, 6.896975, -11.901859
2147530, 0.172852, 0.852295, -0.416748, 5.187988, -7.019045, -35.156250
2147550, 0.183838, 0.830200, -0.453979, 8.056641, 3.784181, -18.737793
2147570, 0.335815, 0.848755, -0.505859, 4.943848, 1.281738, -13.610844
2147590, 0.357178, 0.856201, -0.532349, -0.061035, -3.967286, -17.883301
2147610, 0.319214, 0.829956, -0.540039, -8.850098, -12.146000, -22.033691
2147630, 0.275391, 0.833740, -0.521484, -15.686039, -17.639160, -20.874023
2147650, 0.239380, 0.837036, -0.492676, -19.470215, -20.812988, -16.357422
2147670, 0.205200, 0.830688, -0.479858, -19.348145, -14.892582, -12.146000
2147690, 0.211426, 0.843628, -0.473022, -18.188477, -10.375977, -5.493164
2147710, 0.266846, 0.849976, -0.485107, -19.348145, -13.000492, -1.464844
2147730, 0.256348, 0.842041, -0.480103, -20.263672, -16.052246, 0.854492
2147750, 0.271851, 0.839844, -0.471436, -19.042969, -15.563969, 2.685547
2147770, 0.257935, 0.843872, -0.481323, -16.479492, -17.395020, 5.859377
2147790, 0.235474, 0.836914, -0.494751, -15.563969, -18.005371, 10.620117
2147810, 0.219604, 0.847412, -0.524170, -14.099125, -19.958496, 7.690432
2147830, 0.134644, 0.856812, -0.508423, -13.366703, -14.831547, 10.192871
2147850, 0.114868, 0.853882, -0.494263, -14.343266, -6.896975, 17.883301
2147870, 0.088135, 0.847656, -0.482544, -9.582520, 3.845216, 26.306160
2147890, 0.224976, 0.874146, -0.524536, -10.070801, 7.385256, 21.728516
2147910, 0.145264, 0.896118, -0.419434, -4.211426, 8.605957, 10.131836
2147930, 0.206909, 0.890137, -0.464966, -4.699707, 6.713869, 7.385256
2147950, 0.074463, 0.895508, -0.399414, -0.366211, 8.300781, 10.437012
2147970, 0.181763, 0.911499, -0.419922, 0.549316, 9.582520, 10.131836
2147990, 0.079956, 0.909058, -0.343872, 10.498047, 10.375977, 13.244633
2148010, 0.132935, 0.921753, -0.400391, 10.986328, 20.874023, 16.235352
2148030, 0.174194, 0.917114, -0.361816, 13.366703, 24.597176, 16.540527
2148050, 0.211792, 0.908691, -0.369019, 16.418457, 28.686531, 17.089844
2148070, 0.261597, 0.898438, -0.395752, 19.836426, 27.404793, 13.671879
