timestamp,ax,ay,az,gx,gy,gz
1063268, 0.429810, 0.746094, -0.553345, 7.080080, -4.333496, -0.671387
1063288, 0.349976, 1.048828, -0.647583, 25.634773, 2.807618, 13.610844
1063308, 0.569824, 1.274902, -0.353027, 103.942902, -0.854492, 48.828140
1063328, 0.592285, 0.509766, -0.557861, 140.869141, -22.644051, 55.236832
1063348, 0.338867, 0.160767, -0.865112, 76.660156, -23.132332, 38.146973
1063368, 0.397705, 0.270386, -0.663208, 35.339355, -16.418457, 12.329105
1063388, 0.418457, 0.442383, -0.702759, 39.611816, -19.226074, -10.314941
1063408, 0.338257, 0.485474, -0.893311, 33.752441, -13.549809, -15.014652
1063428, 0.270386, 0.500732, -0.864624, 22.277840, -4.272461, -11.352543
1063448, 0.282349, 0.520020, -0.802490, 16.113281, -0.244141, -1.525879
1063468, 0.334961, 0.537109, -0.795410, 14.038090, 4.211426, 7.995607
1063488, 0.427368, 0.518311, -0.746338, 13.488773, 1.464844, 6.896975
1063508, 0.429810, 0.497437, -0.743530, 13.427738, -0.976563, 1.525879
1063528, 0.399414, 0.554443, -0.760376, 14.526371, 2.624512, 5.065918
1063548, 0.423340, 0.575684, -0.782593, 17.761230, 2.197266, 7.507326
1063568, 0.413086, 0.525635, -0.778198, 17.150879, -1.098633, 10.131836
1063588, 0.398804, 0.512451, -0.760742, 17.700195, 0.732422, 8.972168
1063608, 0.410034, 0.498779, -0.782104, 17.883301, 0.976563, 8.117676
1063628, 0.383423, 0.500000, -0.801392, 16.235352, 0.549316, 6.652834
1063648, 0.353760, 0.489136, -0.788940, 16.540527, 11.169437, 7.446291
1063668, 0.417358, 0.506348, -0.809326, 19.958496, 16.357422, 12.084965
1063688, 0.432617, 0.492554, -0.799683, 23.254402, 16.479492, 15.563969
1063708, 0.450562, 0.422485, -0.788940, 23.193367, 12.512211, 15.747074
1063728, 0.462524, 0.411011, -0.782471, 22.949226, 8.850098, 13.366703
1063748, 0.489746, 0.388062, -0.791260, 27.465828, 0.000000, 2.502441
1063768, 0.398315, 0.320435, -0.850586, 21.789551, -7.202150, -8.483887
1063788, 0.351929, 0.307495, -0.854248, 11.047363, -2.258301, -15.319828
1063808, 0.356445, 0.306152, -0.807739, 1.281738, 11.169437, -16.357422
1063828, 0.451050, 0.353760, -0.805542, -7.629396, 25.268562, -12.146000
1063848, 0.507690, 0.439087, -0.730469, -14.526371, 34.973145, -7.080080
1063868, 0.627686, 0.496582, -0.652100, -8.178711, 37.841797, 2.319336
1063888, 0.671021, 0.472656, -0.668701, -4.150391, 17.456055, 2.685547
1063908, 0.564819, 0.494873, -0.715332, -2.990724, -9.582520, 3.540040
1063928, 0.532104, 0.496582, -0.769531, -4.821777, 1.098633, -2.441406
1063948, 0.448364, 0.499146, -0.782104, -0.732422, -1.281738, -3.417970
1063968, 0.413696, 0.464844, -0.826172, 2.685547, 0.976563, -3.784181
1063988, 0.415527, 0.431030, -0.840210, 1.159668, 0.671387, -4.089355
1064008, 0.436279, 0.438843, -0.812622, 1.159668, 0.122070, -5.554201
1064028, 0.451782, 0.442871, -0.796509, 0.915528, -0.305176, -6.591799
1064048, 0.485718, 0.448364, -0.763184, -0.854492, 1.892090, -7.324221
1064068, 0.510132, 0.459106, -0.737427, -1.403809, 2.380371, -7.324221
1064088, 0.519897, 0.461182, -0.735229, -0.976563, 1.525879, -5.859377
1064108, 0.505737, 0.468384, -0.730469, 0.610352, 3.112794, -4.760742
1064128, 0.490479, 0.454224, -0.744141, 1.831055, 4.638672, -3.662110
1064148, 0.508789, 0.454468, -0.773438, 1.281738, 0.000000, -4.638672
1064168, 0.470337, 0.450928, -0.777100, 0.366211, -0.976563, -5.981447
1064188, 0.459839, 0.467529, -0.778198, 1.220703, -1.037598, -5.737307
1064208, 0.460815, 0.451782, -0.793701, 0.793457, -1.464844, -5.737307
1064228, 0.464966, 0.459473, -0.781006, -0.183106, -0.793457, -4.821777
1064248, 0.484863, 0.448975, -0.753418, 0.061035, -2.014160, -4.699707
1064268, 0.447754, 0.443481, -0.721680, 1.770020, -11.962894, 0.061035
1064288, 0.514526, 0.440674, -0.763672, 0.915528, 4.882813, 1.159668
1064308, 0.502808, 0.463867, -0.750244, -2.685547, 3.967286, -3.173829
1064328, 0.489868, 0.463989, -0.752319, -1.464844, -2.136230, -4.516602
1064348, 0.472412, 0.440186, -0.771851, -2.136230, -1.831055, -5.249023
1064368, 0.477051, 0.442627, -0.784912, -5.004883, -2.502441, -8.972168
1064388, 0.431641, 0.455078, -0.781128, -7.385256, -1.953125, -10.070801
1064408, 0.457031, 0.477661, -0.773560, -8.056641, -0.305176, -7.934572
1064428, 0.418213, 0.485718, -0.732422, -2.746582, -15.136723, -0.610352
1064448, 0.463623, 0.486572, -0.783691, -4.211426, 6.591799, -2.075195
1064468, 0.469971, 0.486206, -0.765869, -6.713869, 5.004883, -2.929688
1064488, 0.482056, 0.500488, -0.739502, -3.601075, 4.272461, -3.234864
1064508, 0.475586, 0.478271, -0.752319, -2.685547, 3.295899, -4.760742
1064528, 0.448120, 0.477539, -0.749756, -4.455566, 0.976563, -5.371094
1064548, 0.443359, 0.525879, -0.740845, -0.549316, 6.103518, 2.319336
1064568, 0.526245, 0.509766, -0.765381, -2.746582, 7.324221, -1.464844
1064588, 0.492554, 0.492920, -0.745483, -2.624512, 0.793457, -1.342773
1064608, 0.482056, 0.463745, -0.752563, -3.967286, -1.220703, -1.098633
1064628, 0.463379, 0.491943, -0.738525, -5.920412, -2.380371, -5.065918
1064648, 0.460571, 0.508911, -0.755127, -3.723145, -0.671387, -6.408693
1064668, 0.469482, 0.504517, -0.759033, -1.464844, -1.770020, -7.263186
1064688, 0.446899, 0.453369, -0.760376, -3.601075, -5.554201, -8.666992
1064708, 0.422485, 0.439697, -0.763550, -7.568361, -1.770020, -9.887695
1064728, 0.421265, 0.463013, -0.761597, -12.084965, -2.807618, -13.183598
1064748, 0.355835, 0.478149, -0.739136, -11.840824, 12.451176, -11.474613
1064768, 0.346069, 0.472412, -0.713989, -5.981447, 1.464844, -0.488281
1064788, 0.510376, 0.525024, -0.786133, -12.573246, 24.108894, -9.765625
1064808, 0.481812, 0.570801, -0.728271, -6.225588, 24.597176, -6.408693
1064828, 0.501465, 0.544556, -0.703003, -7.873537, 20.690918, -4.211426
1064848, 0.522583, 0.550293, -0.670410, -6.896975, 19.653320, -3.906251
1064868, 0.534668, 0.529297, -0.673828, -7.080080, 15.014652, -8.361816
1064888, 0.528320, 0.524780, -0.670898, -7.141115, 11.840824, -8.605957
1064908, 0.537109, 0.538086, -0.688843, -10.620117, 6.958010, -9.582520
1064928, 0.525879, 0.631958, -0.697632, -10.681152, 3.173829, -5.493164
1064948, 0.533813, 0.650269, -0.681763, -3.540040, 0.122070, 1.098633
1064968, 0.491821, 0.577881, -0.680542, 1.281738, -2.258301, 4.028320
1064988, 0.493652, 0.507202, -0.665771, -0.305176, 0.427246, 5.432129
1065008, 0.471436, 0.491333, -0.692627, -8.789063, -0.793457, 2.319336
1065028, 0.480713, 0.561646, -0.691040, -12.817387, 0.610352, 0.000000
1065048, 0.487305, 0.652222, -0.693848, 1.464844, -1.892090, -1.342773
1065068, 0.504150, 0.559692, -0.724365, -1.647950, -5.493164, -1.281738
1065088, 0.437012, 0.574219, -0.679199, -2.014160, 0.793457, -0.854492
1065108, 0.514893, 0.569946, -0.680054, -2.807618, 0.427246, -2.014160
1065128, 0.483887, 0.565552, -0.671265, -0.793457, 0.000000, -3.356935
1065148, 0.464722, 0.572510, -0.683838, -0.793457, 3.906251, -3.295899
1065168, 0.468628, 0.570923, -0.687500, 0.305176, 10.314941, -2.197266
1065208, 0.521240, 0.598999, -0.723633, 9.094238, -7.629396, -19.042969
1065228, 0.430664, 0.601929, -0.715210, 6.652834, -4.394531, -21.789551
1065248, 0.426880, 0.590088, -0.730591, 5.493164, -3.540040, -24.475105
1065268, 0.481934, 0.600464, -0.670410, 1.403809, -4.882813, -20.141602
1065288, 0.477295, 0.629883, -0.668213, 0.305176, -4.638672, -22.033691
1065308, 0.485962, 0.641357, -0.664063, -1.220703, -4.638672, -26.550301
1065328, 0.499878, 0.630371, -0.692383, -4.760742, -10.314941, -28.686531
1065348, 0.443970, 0.607666, -0.667236, -7.324221, -12.634281, -24.658211
1065368, 0.479492, 0.607422, -0.694092, -11.535648, -15.197758, -23.376472
1065388, 0.491699, 0.597534, -0.696533, -18.981934, -35.949707, -19.104004
1065408, 0.446655, 0.606934, -0.713623, -23.010262, -48.584000, -15.808109
1065428, 0.463867, 0.589844, -0.681885, -25.146492, -55.053726, -14.404301
1065448, 0.453735, 0.650513, -0.666138, -27.099617, -58.471695, -13.671879
1065468, 0.427612, 0.563843, -0.657471, -23.864754, -60.180679, -15.014652
1065488, 0.331909, 0.601074, -0.677002, -20.568848, -55.236832, -9.338379
1065508, 0.286255, 0.606201, -0.687012, -15.930180, -50.598160, -2.868653
1065528, 0.246094, 0.638428, -0.724243, -18.127441, -34.484863, 6.896975
1065548, 0.311890, 0.619995, -0.652466, -14.465336, -29.724129, 12.939457
1065568, 0.253174, 0.654663, -0.686279, -8.911133, -18.005371, 18.676758
1065588, 0.255371, 0.630737, -0.725708, -7.263186, -5.432129, 22.766121
1065608, 0.335449, 0.642212, -0.686646, -6.835939, -2.868653, 22.766121
1065628, 0.318115, 0.646851, -0.712280, -2.990724, -4.394531, 18.188477
1065648, 0.310425, 0.636597, -0.701416, -4.394531, -1.220703, 21.972656
1065668, 0.328979, 0.629395, -0.691406, 0.244141, 1.037598, 19.897461
1065688, 0.345703, 0.624878, -0.693848, 5.187988, 6.164553, 17.944336
1065708, 0.328369, 0.593750, -0.671997, 11.413578, 14.770512, 21.179199
1065728, 0.351807, 0.608032, -0.719482, 15.258793, 10.742188, 20.935059
1065748, 0.311279, 0.683838, -0.769775, 10.864258, 6.835939, 15.441898
1065768, 0.292969, 0.645386, -0.709106, 11.596684, 14.648441, 13.732914
1065788, 0.315918, 0.595581, -0.704102, 12.634281, 18.920898, 15.686039
1065808, 0.329712, 0.618652, -0.703125, 15.319828, 23.620613, 17.944336
1065828, 0.363892, 0.616211, -0.710083, 16.235352, 26.550301, 18.554688
1065848, 0.406616, 0.635742, -0.724609, 12.084965, 25.817879, 15.869144
1065868, 0.387085, 0.612793, -0.664551, 15.563969, 17.883301, 15.258793
1065888, 0.410889, 0.599609, -0.705200, 17.272949, 25.878914, 14.099125
1065908, 0.449341, 0.605347, -0.695313, 17.700195, 24.169930, 12.023930
1065928, 0.440430, 0.602783, -0.723022, 16.723633, 26.550301, 5.859377
1065948, 0.380005, 0.588989, -0.675415, 20.080566, 36.560059, 3.662110
1065968, 0.432007, 0.602173, -0.707397, 17.272949, 53.955093, 1.281738
1065988, 0.447266, 0.608154, -0.687988, 18.005371, 60.302750, -1.831055
1066008, 0.528564, 0.577881, -0.670898, 19.165039, 51.818863, -4.211426
1066028, 0.540161, 0.579590, -0.681152, 13.244633, 44.067383, -2.136230
1066048, 0.596802, 0.589478, -0.646118, 7.812502, 32.653809, -0.305176
1066068, 0.598999, 0.572754, -0.622437, 8.056641, 17.333984, -2.685547
1066088, 0.590332, 0.575928, -0.641235, 7.202150, 10.986328, -2.929688
1066108, 0.616821, 0.598633, -0.666382, 4.638672, -3.540040, -1.281738
1066128, 0.552124, 0.665161, -0.694458, 7.690432, -9.887695, 1.342773
1066148, 0.617432, 0.858887, -0.566895, 3.356935, -27.893074, 19.775391
1066168, 0.711914, 0.798828, -0.578369, 49.987808, -29.663094, 43.090820
1066188, 0.733398, 0.428589, -0.609131, 40.710449, -60.852066, 31.311043
1066208, 0.530151, 0.324341, -0.615845, 20.446777, -84.472656, 13.732914
1066228, 0.376587, 0.406128, -0.699341, 6.469728, -78.125000, 7.385256
1066248, 0.352783, 0.468262, -0.784058, 5.981447, -55.358902, 5.798342
1066268, 0.297607, 0.425171, -0.855347, 5.737307, -33.569336, 4.211426
1066288, 0.288696, 0.390991, -0.868896, 1.220703, -19.470215, -0.366211
