timestamp,ax,ay,az,gx,gy,gz
1071529, 0.298096, 0.242065, -0.873413, 16.723633, 11.718754, -0.122070
1071549, 0.373047, 0.313599, -0.852783, 11.840824, 18.493652, -7.995607
1071569, 0.364136, 0.161377, -0.798096, 14.770512, 0.976563, -35.461426
1071589, 0.200562, 0.135376, -0.893188, 2.441406, 4.882813, -55.725113
1071609, 0.178711, 0.297974, -0.905029, -9.765625, 19.714355, -62.805191
1071629, 0.260864, 0.585693, -0.930054, -18.493652, 69.702148, -19.165039
1071649, 0.492920, 0.615112, -0.773193, -16.906738, 91.857941, 16.418457
1071669, 0.740479, 0.508667, -0.633667, -9.704590, 77.819824, 27.160652
1071689, 0.810059, 0.412476, -0.611694, -6.103518, 30.273445, 9.826660
1071709, 0.662231, 0.427368, -0.662598, -5.920412, -1.098633, -7.263186
1071729, 0.500977, 0.481079, -0.735596, -5.981447, -3.967286, -11.291508
1071749, 0.466064, 0.498169, -0.790649, -3.662110, -2.136230, -5.432129
1071769, 0.411743, 0.473389, -0.839233, -2.746582, -4.333496, -4.394531
1071789, 0.366821, 0.444214, -0.858154, -1.464844, -1.586915, -2.807618
1071809, 0.390015, 0.416016, -0.854980, -2.319336, 0.305176, -3.845216
1071829, 0.414673, 0.420044, -0.834106, -3.540040, 0.244141, -3.173829
1071849, 0.429077, 0.423828, -0.808472, -4.272461, -0.061035, -3.051759
1071869, 0.453003, 0.440918, -0.792603, -4.638672, 1.770020, -2.990724
1071889, 0.466187, 0.462280, -0.774292, -3.173829, 0.732422, -2.380371
1071909, 0.458862, 0.462280, -0.780151, -1.525879, 0.427246, -1.403809
1071929, 0.459595, 0.454956, -0.782349, -1.892090, 0.366211, -0.976563
1071949, 0.455688, 0.453247, -0.774658, -0.976563, -0.671387, -1.098633
1071969, 0.447021, 0.450439, -0.795410, -0.610352, -1.708985, -1.403809
1071989, 0.436523, 0.453613, -0.799438, -0.122070, -1.525879, -1.037598
1072009, 0.437866, 0.443237, -0.803101, -0.305176, -1.586915, -1.281738
1072029, 0.441284, 0.433838, -0.794434, -0.854492, -1.159668, -1.708985
1072049, 0.443726, 0.429565, -0.787109, -1.892090, -0.366211, -2.746582
1072069, 0.450562, 0.445679, -0.781738, -1.770020, 0.244141, -4.272461
1072089, 0.449097, 0.459839, -0.787231, -0.793457, 0.000000, -4.394531
1072109, 0.435547, 0.463013, -0.795776, -0.244141, 0.061035, -2.868653
1072129, 0.433228, 0.460449, -0.799561, -0.305176, 0.183106, -0.976563
1072149, 0.438599, 0.451904, -0.793579, -0.122070, -0.793457, -1.647950
1072169, 0.429443, 0.430420, -0.801147, -1.892090, -1.708985, -3.784181
1072189, 0.431763, 0.445313, -0.793945, -3.356935, -0.366211, -4.638672
1072209, 0.436768, 0.446533, -0.795898, -4.394531, -1.342773, -5.554201
1072229, 0.435547, 0.461426, -0.783081, -4.150391, -0.366211, -4.699707
1072249, 0.440063, 0.455688, -0.788818, -4.211426, -1.525879, -4.150391
1072269, 0.436035, 0.466797, -0.786377, -4.821777, -1.708985, -4.577637
1072289, 0.438110, 0.493530, -0.783813, -2.380371, 0.366211, -3.173829
1072309, 0.455322, 0.476318, -0.783447, -0.671387, 0.671387, -3.356935
1072329, 0.407837, 0.462280, -0.771118, -1.220703, 4.028320, -3.051759
1072349, 0.420288, 0.469116, -0.782715, -0.671387, 7.690432, -1.037598
1072369, 0.453735, 0.480591, -0.799316, -1.281738, 5.004883, -1.403809
1072389, 0.430176, 0.462646, -0.789551, -0.915528, -2.136230, -4.211426
1072409, 0.427246, 0.458984, -0.789795, -1.525879, -1.525879, -3.295899
1072429, 0.424805, 0.463257, -0.789429, -2.929688, -0.488281, -3.051759
1072449, 0.434448, 0.468140, -0.783569, -3.234864, 3.356935, -2.746582
1072469, 0.448608, 0.468750, -0.783691, -3.295899, -1.770020, -6.164553
1072489, 0.434814, 0.476929, -0.781006, -3.601075, -1.220703, -5.798342
1072509, 0.447021, 0.486450, -0.769531, -3.479005, -2.319336, -5.554201
1072529, 0.442261, 0.476074, -0.787231, -3.662110, -1.708985, -5.798342
1072549, 0.427002, 0.472168, -0.780396, -5.065918, -3.479005, -7.019045
1072569, 0.410278, 0.447876, -0.787598, -7.263186, 0.122070, -8.117676
1072589, 0.378174, 0.416626, -0.726563, -4.455566, -11.962894, -5.310059
1072609, 0.435425, 0.591431, -0.786743, -3.601075, 7.019045, -0.427246
1072629, 0.472656, 0.523804, -0.788208, -5.676271, 6.164553, -4.699707
1072649, 0.403442, 0.506958, -0.746094, -3.112794, 5.859377, -2.563477
1072669, 0.428833, 0.467896, -0.765259, -4.638672, 3.234864, 1.647950
1072689, 0.452393, 0.473145, -0.771362, -9.460449, 5.737307, -1.098633
1072709, 0.445923, 0.461548, -0.759644, -10.131836, -1.953125, -2.319336
1072729, 0.402954, 0.448853, -0.775635, -13.366703, -2.380371, -2.624512
1072749, 0.381592, 0.449951, -0.785889, -21.179199, -2.014160, -3.723145
1072769, 0.353638, 0.478271, -0.747803, -24.963387, 4.455566, 0.183106
1072789, 0.391846, 0.571167, -0.772583, -23.071297, 19.104004, 2.075195
1072809, 0.411987, 0.596069, -0.758057, -18.127441, 18.371582, 0.915528
1072829, 0.451538, 0.604858, -0.741089, -11.779789, 19.775391, 0.915528
1072849, 0.484497, 0.547485, -0.720825, -9.948730, 13.488773, -0.671387
1072869, 0.482300, 0.518677, -0.708618, -12.878422, 9.277344, -0.793457
1072889, 0.461182, 0.519409, -0.675903, -13.671879, 3.967286, 2.075195
1072909, 0.484375, 0.543091, -0.695557, -13.610844, 13.061527, 3.784181
1072929, 0.495605, 0.569946, -0.680664, -12.146000, -0.671387, 3.112794
1072949, 0.515381, 0.630615, -0.715820, -6.286623, 3.173829, 7.751467
1072969, 0.466553, 0.597900, -0.685425, -1.342773, -3.173829, 6.958010
1072989, 0.473267, 0.544678, -0.705811, -4.211426, -0.427246, 4.394531
1073009, 0.480225, 0.611572, -0.676270, -2.502441, -7.507326, 6.408693
1073029, 0.451172, 0.540894, -0.712891, -0.061035, -4.028320, 6.652834
1073049, 0.440552, 0.574707, -0.703003, -1.953125, -1.525879, 4.394531
1073069, 0.469482, 0.573486, -0.702026, -1.281738, 1.403809, 1.525879
1073089, 0.464478, 0.568481, -0.698975, -1.159668, 2.014160, -0.793457
1073109, 0.426514, 0.580688, -0.706421, -1.708985, 5.981447, -1.220703
1073129, 0.404419, 0.583130, -0.706909, -2.136230, 20.874023, 0.976563
1073149, 0.459839, 0.566040, -0.684570, 1.647950, 30.212410, 0.244141
1073169, 0.538452, 0.595337, -0.698975, 5.004883, 22.399910, -6.408693
1073189, 0.527344, 0.585815, -0.711792, 8.361816, 3.234864, -18.249512
1073209, 0.457397, 0.577026, -0.699097, 5.554201, 1.525879, -17.944336
1073229, 0.498169, 0.617432, -0.700928, 6.103518, -4.455566, -22.949226
1073249, 0.452148, 0.591309, -0.686035, 3.662110, -3.112794, -22.827156
1073269, 0.479614, 0.620239, -0.676147, 1.647950, -3.234864, -24.353035
1073289, 0.496582, 0.635986, -0.665039, 0.000000, -6.591799, -25.207527
1073309, 0.490723, 0.648315, -0.693970, -3.784181, -12.512211, -27.893074
1073329, 0.416138, 0.580933, -0.687378, -10.131836, -13.488773, -23.132332
1073349, 0.458008, 0.607544, -0.691040, -13.366703, -16.296387, -18.554688
1073369, 0.501953, 0.603027, -0.716919, -17.944336, -26.489265, -18.798828
1073389, 0.476440, 0.585205, -0.688721, -22.583015, -43.579102, -15.441898
1073409, 0.452515, 0.614868, -0.706543, -25.024422, -53.161636, -12.695316
1073429, 0.458008, 0.660522, -0.639648, -29.541023, -45.715347, -15.441898
1073449, 0.430908, 0.610229, -0.721191, -29.602058, -56.762711, -14.831547
1073469, 0.372559, 0.614502, -0.666138, -29.785164, -54.016129, -14.221195
1073489, 0.345703, 0.614746, -0.666504, -28.625496, -50.842300, -9.338379
1073509, 0.285522, 0.621094, -0.661987, -23.315437, -44.677750, -4.577637
1073529, 0.282349, 0.626099, -0.669189, -13.122562, -44.494644, 6.591799
1073549, 0.238770, 0.632446, -0.708740, -14.709476, -35.705566, 13.977055
1073569, 0.242310, 0.658691, -0.682861, -11.230473, -21.545410, 20.996094
1073589, 0.288696, 0.656250, -0.679077, -8.728027, -9.399414, 20.568848
1073609, 0.282227, 0.658447, -0.692505, -2.868653, -4.089355, 16.418457
1073629, 0.287842, 0.661377, -0.686523, -2.685547, -0.061035, 19.226074
1073649, 0.298340, 0.655151, -0.643677, 2.502441, 2.136230, 20.568848
1073669, 0.322266, 0.654175, -0.680054, 5.798342, 5.920412, 22.827156
1073689, 0.339600, 0.661865, -0.703125, 6.103518, 12.573246, 22.216805
1073709, 0.347534, 0.632813, -0.693359, 11.352543, 4.455566, 11.169437
1073729, 0.284546, 0.618652, -0.726196, 14.648441, 9.582520, 12.939457
1073749, 0.295288, 0.659546, -0.735107, 12.146000, 5.920412, 12.390141
1073769, 0.311768, 0.649780, -0.731812, 9.582520, 7.751467, 12.023930
1073789, 0.336182, 0.640015, -0.720215, 8.850098, 5.859377, 10.009766
1073809, 0.311890, 0.630737, -0.714233, 10.375977, 9.460449, 10.437012
1073829, 0.336182, 0.602295, -0.690552, 12.878422, 8.361816, 13.305668
1073849, 0.316895, 0.625977, -0.682617, 15.258793, 4.272461, 16.906738
1073869, 0.307861, 0.643677, -0.698975, 17.639160, 9.277344, 21.789551
1073889, 0.388916, 0.626099, -0.718994, 15.014652, 15.869144, 17.944336
1073909, 0.383423, 0.619263, -0.727783, 15.075687, 23.681648, 14.038090
1073929, 0.409180, 0.608521, -0.688721, 15.747074, 18.127441, 12.268070
1073949, 0.435059, 0.598999, -0.735474, 14.953617, 26.916512, 7.385256
1073969, 0.401367, 0.597412, -0.696167, 13.977055, 24.475105, 5.310059
1073989, 0.358521, 0.612549, -0.708740, 16.845703, 31.738289, 6.286623
1074009, 0.420288, 0.598022, -0.691284, 15.319828, 42.663574, 3.356935
1074029, 0.427979, 0.587524, -0.710449, 16.479492, 47.790543, 0.366211
1074049, 0.406494, 0.592651, -0.696655, 19.836426, 52.307144, -3.601075
1074069, 0.480225, 0.583862, -0.706299, 20.263672, 48.645035, -5.676271
1074089, 0.576416, 0.585327, -0.670776, 11.596684, 35.522461, -3.479005
1074109, 0.573120, 0.578125, -0.649414, 6.530764, 20.629883, -2.746582
1074129, 0.589600, 0.581909, -0.640015, 3.234864, 11.352543, -1.098633
1074149, 0.548096, 0.568359, -0.651489, 2.868653, 2.136230, -1.708985
1074169, 0.500244, 0.562012, -0.676880, 2.685547, 2.075195, -2.014160
1074189, 0.494629, 0.554077, -0.688721, 1.770020, 2.258301, -1.708985
1074209, 0.500000, 0.562378, -0.668457, 1.953125, 2.258301, -0.915528
1074229, 0.517334, 0.581177, -0.678467, 2.685547, 1.159668, -0.488281
1074249, 0.522949, 0.643555, -0.695068, 4.699707, -4.211426, 2.014160
1074269, 0.576660, 0.794800, -0.766846, 8.178711, -2.929688, 7.080080
1074289, 0.716675, 1.068115, -0.472900, 72.753906, -3.601075, 55.419937
1074309, 0.917114, 0.469849, -0.641724, 70.617676, -59.326187, 46.813980
1074329, 0.642822, 0.228638, -0.536987, 31.860359, -114.563019, 27.038582
1074349, 0.416504, 0.225342, -0.597900, 8.911133, -121.337921, 7.019045
1074369, 0.282959, 0.315918, -0.729004, 4.699707, -92.224152, -3.540040
1074389, 0.178223, 0.427002, -0.906372, 4.028320, -63.415543, -1.098633
1074409, 0.159180, 0.469482, -0.943848, 4.089355, -38.208008, 0.366211
1074429, 0.140137, 0.377930, -0.888306, 4.516602, -17.761230, -0.244141
1074449, 0.192261, 0.303955, -0.897949, -3.662110, -1.586915, 0.366211
