timestamp,ax,ay,az,gx,gy,gz
273551, 0.264404, 0.829102, -0.510864, -0.610352, 2.380371, 1.708985
273571, 0.280396, 0.830811, -0.507690, -0.366211, 2.441406, 1.037598
273591, 0.285889, 0.831299, -0.500732, 0.183106, 0.488281, -0.183106
273611, 0.287720, 0.833008, -0.499756, 1.037598, -1.586915, -1.708985
273631, 0.268188, 0.831787, -0.502686, 1.892090, -2.441406, -2.807618
273651, 0.256104, 0.828735, -0.511963, 2.014160, -2.502441, -2.685547
273671, 0.249512, 0.829956, -0.520142, 1.403809, -1.708985, -2.502441
273691, 0.248657, 0.826294, -0.522217, 0.366211, -0.549316, -1.953125
273711, 0.251587, 0.829590, -0.507568, 0.610352, 1.037598, -0.610352
273731, 0.262085, 0.829224, -0.512939, 0.671387, 2.075195, -0.488281
273751, 0.272583, 0.828247, -0.518677, 0.366211, 1.037598, -0.793457
273771, 0.276245, 0.828979, -0.511963, 0.000000, -0.793457, -1.586915
273791, 0.268677, 0.830322, -0.509766, 0.122070, -1.953125, -2.441406
273811, 0.256348, 0.829956, -0.511230, 0.183106, -2.136230, -2.441406
273831, 0.245850, 0.829468, -0.513550, 0.061035, -1.159668, -2.014160
273851, 0.240356, 0.831787, -0.509521, -0.061035, 0.610352, -1.098633
273871, 0.248535, 0.832275, -0.505737, 0.183106, 1.342773, -0.183106
273891, 0.255981, 0.831421, -0.503052, 1.037598, 0.854492, 0.793457
273911, 0.266357, 0.830078, -0.518799, 0.976563, 0.915528, 0.732422
273931, 0.272217, 0.825806, -0.517578, 0.183106, 0.793457, -0.305176
273951, 0.270264, 0.830200, -0.505371, 0.366211, -0.122070, -0.732422
273971, 0.265625, 0.830688, -0.509521, 0.976563, -0.793457, -1.098633
273991, 0.256104, 0.827393, -0.519165, 0.488281, -1.281738, -0.915528
274011, 0.241089, 0.829224, -0.515991, -0.122070, -1.525879, 0.122070
274031, 0.240967, 0.830444, -0.511841, -0.610352, -0.305176, 1.464844
274051, 0.255859, 0.830444, -0.502686, -0.305176, 1.708985, 1.892090
274071, 0.270264, 0.830566, -0.502930, 0.488281, 2.441406, 1.953125
274091, 0.282471, 0.828735, -0.507935, 1.220703, -0.427246, 0.915528
274111, 0.268799, 0.829712, -0.511963, 1.281738, -1.892090, 0.305176
274131, 0.259155, 0.826782, -0.516479, 1.037598, -0.793457, 0.488281
274151, 0.268677, 0.826416, -0.521484, 0.183106, 0.854492, 0.244141
274171, 0.269043, 0.826172, -0.517456, -0.488281, 2.197266, -0.244141
274191, 0.283203, 0.829224, -0.507690, -0.610352, 0.427246, -0.732422
274211, 0.281616, 0.831543, -0.500488, -0.183106, -1.342773, -1.831055
274231, 0.262451, 0.829468, -0.506836, 0.610352, -2.075195, -2.258301
274251, 0.253540, 0.827026, -0.527222, -0.183106, -0.854492, -1.464844
274271, 0.264648, 0.824951, -0.524414, -1.647950, 0.732422, -1.159668
274291, 0.287354, 0.823975, -0.515869, -3.112794, -3.479005, -2.441406
274311, 0.259888, 0.831055, -0.512451, -3.845216, -6.713869, -2.624512
274331, 0.246826, 0.833984, -0.500000, -3.845216, -4.821777, -2.014160
274351, 0.244385, 0.838501, -0.483154, -2.380371, 0.854492, -2.014160
274371, 0.255981, 0.839233, -0.496826, -0.976563, 3.967286, -1.770020
274391, 0.270386, 0.833130, -0.502319, -1.037598, 1.770020, -1.770020
274411, 0.264771, 0.837891, -0.496704, -0.427246, 1.403809, -2.075195
274431, 0.279907, 0.831665, -0.509521, -0.793457, 1.342773, -2.929688
274451, 0.263794, 0.835083, -0.502563, -1.037598, -1.586915, -3.540040
274471, 0.242554, 0.828247, -0.505371, -1.403809, -0.427246, -2.746582
274491, 0.235229, 0.843628, -0.495850, -1.892090, 0.488281, -1.037598
274511, 0.260010, 0.837524, -0.489990, -0.671387, 1.586915, -0.366211
274531, 0.273682, 0.835938, -0.503296, -0.854492, 1.464844, -1.220703
274551, 0.290771, 0.835693, -0.499756, -0.915528, -1.464844, -2.563477
274571, 0.278442, 0.838501, -0.497070, -1.037598, -3.601075, -4.821777
274591, 0.252808, 0.838867, -0.499512, -0.976563, -3.051759, -5.554201
274611, 0.244507, 0.837158, -0.506470, -1.464844, -1.586915, -5.371094
274631, 0.243408, 0.839844, -0.498291, -2.319336, -1.037598, -4.699707
274651, 0.242432, 0.841431, -0.488770, -1.342773, -0.244141, -3.601075
274671, 0.245483, 0.842896, -0.493652, -1.953125, 0.244141, -3.295899
274691, 0.250854, 0.846069, -0.488281, -1.159668, -1.098633, -2.746582
274711, 0.265015, 0.847290, -0.485107, -0.732422, -2.319336, -3.601075
274731, 0.261475, 0.847534, -0.480835, 0.610352, -3.723145, -4.638672
274751, 0.255005, 0.842407, -0.500977, 0.732422, -5.126953, -5.310059
274771, 0.237305, 0.845703, -0.497070, 0.244141, -5.371094, -5.493164
274791, 0.219971, 0.843994, -0.497437, 0.244141, -4.516602, -4.760742
274811, 0.214966, 0.844849, -0.501831, -0.305176, -1.953125, -3.234864
274831, 0.217773, 0.843262, -0.503418, -0.793457, -0.183106, -2.136230
274851, 0.220337, 0.842651, -0.504272, -2.319336, 0.976563, -0.061035
274871, 0.219360, 0.845215, -0.497070, -2.807618, 1.464844, 1.403809
274891, 0.251831, 0.849976, -0.493774, -3.051759, 0.854492, 2.014160
274911, 0.265869, 0.850830, -0.491455, -3.112794, -1.525879, 0.488281
274931, 0.265259, 0.846313, -0.485962, -2.685547, -5.493164, -0.793457
274951, 0.276733, 0.841187, -0.506226, -3.295899, -9.399414, -2.441406
274971, 0.307251, 0.833252, -0.525269, -5.981447, -20.507813, -4.821777
274991, 0.241333, 0.843872, -0.519897, -8.911133, -30.273445, -6.530764
275011, 0.170166, 0.856201, -0.506958, -10.620117, -24.902351, -5.004883
275031, 0.248169, 0.842896, -0.514893, -15.014652, -17.089844, -5.004883
275051, 0.286743, 0.837646, -0.557129, -19.409180, -31.250008, -7.202150
275071, 0.167358, 0.852783, -0.523071, -25.390633, -36.743164, -7.690432
275091, 0.094971, 0.869629, -0.480225, -26.916512, -30.456551, -2.075195
275111, 0.070679, 0.877319, -0.382935, -22.033691, -11.840824, 5.493164
275131, 0.110229, 0.900513, -0.318359, -4.028320, 0.610352, 13.061527
275151, 0.179565, 0.873657, -0.477295, 2.319336, 10.864258, 12.634281
275171, 0.273315, 0.868896, -0.485107, -2.929688, 11.779789, 7.324221
275191, 0.284668, 0.884888, -0.421997, 1.281738, 2.075195, -0.488281
275211, 0.231689, 0.881470, -0.474609, 2.441406, -0.122070, -7.019045
275231, 0.176147, 0.878540, -0.456787, -0.122070, 2.502441, -8.728027
275251, 0.134888, 0.897705, -0.410522, 7.324221, 7.202150, -10.803223
275271, 0.083130, 0.884155, -0.460571, 10.253906, 15.441898, -9.704590
275291, 0.136841, 0.888428, -0.463379, 7.934572, 15.502934, -10.314941
275311, 0.181763, 0.911743, -0.444702, 9.155273, 10.620117, -16.235352
275331, 0.120117, 0.875977, -0.489868, 9.399414, 9.826660, -22.216805
275351, 0.104248, 0.912109, -0.451660, 7.812502, 12.939457, -23.620613
275371, 0.040039, 0.885498, -0.460449, 6.591799, 21.545410, -19.531250
275391, 0.093018, 0.877319, -0.459961, 3.723145, 26.794441, -13.549809
275411, 0.145752, 0.914429, -0.397705, 4.455566, 27.465828, -6.896975
275431, 0.162842, 0.888672, -0.452637, 2.563477, 28.076180, -6.713869
275451, 0.186279, 0.908203, -0.403442, 2.502441, 26.672371, -8.056641
275471, 0.210327, 0.925293, -0.395142, 3.479005, 24.597176, -10.009766
275491, 0.223389, 0.896484, -0.436035, 3.845216, 24.047859, -15.869144
275511, 0.254761, 0.836304, -0.423340, 2.563477, 18.005371, -19.287109
275531, 0.159058, 0.956543, -0.407471, 4.333496, 7.446291, -28.747566
275551, 0.158325, 0.911743, -0.393188, 12.268070, 6.958010, -20.324707
275571, 0.057373, 0.885742, -0.446167, 6.103518, 17.700195, -9.033203
275591, 0.147827, 0.904419, -0.501343, 0.000000, 25.207527, -3.356935
275611, 0.199585, 0.901733, -0.423096, -12.939457, 30.700691, -9.460449
275631, 0.294312, 0.914795, -0.408936, -12.695316, 29.052742, -16.967773
275651, 0.309448, 0.905029, -0.363403, -10.620117, 23.498543, -26.916512
275671, 0.309204, 0.931519, -0.365723, -7.019045, 17.272949, -38.574219
275691, 0.238159, 0.929077, -0.386719, -9.704590, 13.793949, -47.302261
275711, 0.232056, 0.914185, -0.402344, -17.456055, 10.681152, -56.823746
275731, 0.180054, 0.896118, -0.357422, -19.592285, 13.000492, -59.997574
275751, 0.147583, 0.911377, -0.291870, -15.136723, 12.939457, -53.405777
275771, 0.133301, 0.934082, -0.329712, -6.958010, 10.864258, -39.855957
275791, 0.145508, 0.901489, -0.433228, -18.798828, 9.338379, -30.395515
275811, 0.200195, 0.922974, -0.411499, -21.362305, 1.708985, -29.602058
275831, 0.196655, 0.921143, -0.403809, -24.353035, -5.615236, -29.296883
275851, 0.154785, 0.909668, -0.385132, -22.094727, -11.962894, -27.404793
275871, 0.139282, 0.914551, -0.388428, -20.446777, -19.165039, -19.836426
275891, 0.119751, 0.931274, -0.360352, -17.395020, -23.803719, -14.282230
275911, 0.074585, 0.923462, -0.366455, -12.939457, -22.766121, -9.460449
275931, 0.100098, 0.929565, -0.367920, -9.277344, -23.681648, -1.831055
275951, 0.106445, 0.936646, -0.388794, -5.249023, -27.893074, 4.943848
275971, 0.024048, 0.887085, -0.412964, -5.249023, -28.198250, 19.592285
275991, 0.100708, 0.947754, -0.426392, -13.427738, -34.179688, 45.837418
276011, 0.150269, 0.982422, -0.373291, -4.577637, -32.836914, 33.325195
276031, 0.090942, 0.927246, -0.379883, 4.943848, -34.729004, 35.156250
276051, 0.148193, 0.909668, -0.427979, 7.019045, -30.151375, 34.545898
276071, 0.115967, 0.903442, -0.434204, 3.906251, -33.935547, 31.250008
276091, 0.077759, 0.921387, -0.438965, 1.586915, -24.292000, 28.564461
276111, 0.074097, 0.903442, -0.491699, -2.990724, -16.113281, 18.615723
276131, -0.012939, 0.925049, -0.418823, -5.065918, -1.831055, 22.460945
276151, 0.026245, 0.895874, -0.401245, -0.732422, -1.220703, 34.301758
276171, 0.100830, 0.902588, -0.460205, -5.187988, -0.610352, 30.700691
276191, 0.099731, 0.920044, -0.482300, -11.901859, -0.915528, 15.930180
276211, 0.024170, 0.936523, -0.344116, -6.042482, 2.990724, 9.765625
276231, 0.030640, 0.936890, -0.374146, 0.061035, 7.812502, 9.643555
276251, 0.040894, 0.909058, -0.479126, -7.202150, 10.803223, 7.812502
276271, 0.001221, 0.955444, -0.409790, -15.991215, 9.399414, 5.676271
276291, -0.069458, 0.981689, -0.216553, -5.981447, 15.380863, 14.038090
276311, -0.021118, 0.953491, -0.334839, 4.028320, 28.259285, 16.723633
276331, 0.053833, 0.928955, -0.438232, -8.789063, 38.452148, 13.977055
276351, 0.109131, 0.986572, -0.239014, -12.939457, 29.052742, 14.038090
276371, 0.136353, 0.977051, -0.220215, 0.854492, 22.094727, 11.779789
276391, 0.120728, 0.975586, -0.192505, 8.239746, 20.812988, 8.789063
276411, 0.136597, 0.975830, -0.242065, 10.681152, 22.827156, 5.249023
276431, 0.166748, 0.986816, -0.194214, 13.916019, 18.920898, 2.929688
276451, 0.169189, 0.965820, -0.216187, 15.808109, 17.395020, 4.333496
276471, 0.195679, 0.964722, -0.203125, 14.587406, 12.451176, 9.765625
276491, 0.208252, 0.951538, -0.201538, 16.784668, 9.887695, 11.108402
276511, 0.236084, 0.924438, -0.260010, 15.075687, 12.329105, 11.596684
276531, 0.295166, 0.933594, -0.270874, 7.751467, 7.446291, 14.465336
276551, 0.353271, 0.942017, -0.245728, 11.962894, -0.976563, 11.840824
