timestamp,ax,ay,az,gx,gy,gz
291472, 0.157227, 0.862061, -0.529175, 9.277344, -4.882813, -9.582520
291492, 0.187256, 0.871460, -0.477173, -2.807618, -0.549316, -3.234864
291512, 0.198120, 0.893311, -0.415771, -6.774904, 0.000000, -0.610352
291532, 0.224731, 0.904663, -0.367554, -5.126953, -0.793457, 1.098633
291552, 0.245972, 0.907715, -0.361450, -2.807618, -2.136230, -0.183106
291572, 0.222046, 0.916016, -0.337891, 1.770020, -3.662110, -0.244141
291592, 0.210083, 0.909180, -0.361816, 5.798342, -2.868653, 0.305176
291612, 0.203613, 0.900635, -0.387085, 7.873537, -0.610352, 1.770020
291632, 0.231689, 0.890503, -0.419434, 7.507326, 0.000000, 2.441406
291652, 0.241333, 0.888916, -0.426392, 5.371094, -0.732422, 1.464844
291672, 0.224121, 0.894775, -0.403564, 5.371094, -0.793457, 1.281738
291692, 0.219482, 0.890503, -0.410278, 5.310059, 0.183106, 1.586915
291712, 0.221558, 0.889648, -0.415405, 4.943848, 0.915528, 2.380371
291732, 0.212891, 0.892090, -0.404541, 4.882813, 2.136230, 3.356935
291752, 0.221436, 0.884155, -0.417114, 5.737307, 4.394531, 4.394531
291772, 0.252808, 0.883545, -0.437500, 3.601075, 4.272461, 4.089355
291792, 0.252197, 0.886719, -0.412354, 3.051759, 3.234864, 2.746582
291812, 0.243164, 0.884277, -0.423584, 3.112794, 3.112794, 2.258301
291832, 0.247925, 0.881348, -0.427368, 1.892090, 1.586915, 2.319336
291852, 0.251709, 0.883057, -0.425781, 0.793457, 0.122070, 1.586915
291872, 0.248779, 0.883667, -0.419312, 0.183106, -0.366211, 0.854492
291892, 0.249146, 0.886841, -0.409546, 0.549316, -0.732422, 0.854492
291912, 0.258911, 0.883545, -0.421875, 0.549316, -0.854492, 0.061035
291932, 0.252075, 0.883667, -0.412720, 0.183106, -1.525879, -0.915528
291952, 0.242920, 0.886841, -0.411743, 0.793457, -1.403809, -0.854492
291972, 0.240479, 0.883301, -0.422363, 0.549316, -0.671387, -0.976563
291992, 0.230591, 0.885864, -0.408691, 0.610352, 0.183106, -0.244141
292012, 0.243408, 0.885376, -0.411865, 1.220703, 0.244141, 0.610352
292032, 0.256348, 0.887451, -0.405762, 1.892090, -0.549316, 0.122070
292052, 0.237549, 0.882813, -0.417480, 2.563477, -0.671387, 0.122070
292072, 0.239014, 0.880737, -0.421875, 2.319336, -0.244141, 0.488281
292092, 0.229614, 0.880371, -0.421265, 2.075195, 0.976563, 1.403809
292112, 0.247070, 0.881104, -0.425049, 1.647950, 1.892090, 1.892090
292132, 0.250977, 0.881104, -0.421875, 1.159668, 1.647950, 1.647950
292152, 0.255493, 0.884155, -0.408569, 1.708985, 0.610352, 1.586915
292172, 0.247192, 0.881958, -0.416382, 2.441406, 1.892090, 1.159668
292192, 0.253418, 0.878662, -0.425293, 2.136230, 2.746582, 1.220703
292212, 0.264038, 0.880005, -0.425781, 1.708985, 1.220703, 0.854492
292232, 0.255859, 0.876099, -0.429810, 0.976563, 0.000000, 0.122070
292252, 0.244507, 0.882080, -0.419067, 0.549316, -0.732422, 0.671387
292272, 0.253296, 0.878418, -0.425781, 0.549316, 0.122070, 0.976563
292292, 0.253662, 0.878784, -0.418945, 0.427246, -0.366211, 0.915528
292312, 0.275879, 0.860474, -0.411987, 0.305176, -0.671387, 0.061035
292332, 0.281860, 0.909424, -0.431519, 0.427246, -1.342773, -0.854492
292352, 0.243774, 0.876099, -0.382690, 3.112794, -1.220703, -2.868653
292372, 0.233643, 0.872437, -0.448486, 2.014160, -0.915528, -0.854492
292392, 0.250366, 0.881104, -0.418579, 1.464844, -0.854492, 0.305176
292412, 0.248901, 0.878296, -0.430786, 1.403809, -0.244141, 0.244141
292432, 0.243530, 0.879761, -0.417114, 1.586915, 1.220703, 1.220703
292472, 0.249023, 0.876221, -0.424072, 3.295899, 4.272461, 3.540040
292492, 0.282471, 0.873535, -0.435303, 2.624512, 4.028320, 2.929688
292512, 0.289917, 0.874146, -0.424194, 2.197266, 1.647950, 0.915528
292532, 0.270874, 0.876709, -0.421387, 2.563477, -0.305176, -0.305176
292552, 0.250732, 0.875122, -0.423096, 2.868653, 0.366211, -0.183106
292572, 0.252197, 0.872925, -0.430420, 2.929688, 2.746582, 0.488281
292592, 0.281128, 0.869141, -0.437622, 2.075195, 3.173829, -0.061035
292612, 0.275513, 0.875977, -0.422607, 1.892090, 1.098633, -2.014160
292632, 0.258423, 0.872192, -0.426636, 2.197266, 1.586915, -2.441406
292652, 0.247559, 0.871582, -0.429077, 2.136230, 1.525879, -1.159668
292672, 0.254517, 0.870728, -0.435303, 1.770020, 1.098633, -0.183106
292692, 0.247314, 0.872070, -0.428711, 1.403809, 2.197266, 0.793457
292732, 0.279907, 0.871216, -0.433960, 0.915528, 4.577637, 0.915528
292752, 0.288818, 0.872192, -0.432495, 0.488281, 3.173829, -0.427246
292772, 0.283813, 0.871338, -0.426270, 0.427246, 2.136230, -1.770020
292792, 0.272339, 0.871216, -0.428955, 0.427246, 1.525879, -2.441406
292812, 0.268555, 0.874023, -0.425537, 0.366211, 1.098633, -2.624512
292832, 0.266479, 0.872559, -0.427246, 0.427246, 1.159668, -2.685547
292852, 0.257446, 0.871704, -0.433716, 0.061035, 0.854492, -2.197266
292872, 0.253052, 0.872437, -0.427979, -0.427246, 1.037598, -1.098633
292892, 0.261597, 0.873901, -0.419556, -0.061035, 1.464844, -0.305176
292912, 0.274292, 0.876343, -0.420044, 0.244141, 2.197266, -0.854492
292932, 0.267578, 0.877930, -0.408447, 1.708985, 0.732422, -0.915528
292952, 0.264160, 0.869995, -0.437012, 1.770020, 1.342773, -0.732422
292972, 0.270752, 0.869141, -0.441406, 0.488281, 0.976563, -0.732422
292992, 0.265625, 0.870117, -0.437256, -1.403809, -0.061035, -0.732422
293012, 0.261719, 0.874146, -0.425049, -1.770020, 0.183106, -0.366211
293032, 0.267700, 0.874023, -0.419922, -1.525879, 0.671387, -0.183106
293052, 0.276245, 0.876221, -0.418457, -1.159668, 0.000000, -0.488281
293072, 0.270020, 0.873657, -0.425537, -1.037598, -0.061035, -1.037598
293092, 0.268799, 0.873169, -0.424683, -1.220703, -0.549316, -0.793457
293112, 0.273926, 0.873047, -0.428223, -1.770020, -0.305176, -1.220703
293132, 0.280151, 0.874268, -0.421509, -2.075195, -0.671387, -1.892090
293152, 0.277344, 0.875977, -0.418701, -2.197266, -2.014160, -2.563477
293172, 0.278931, 0.881104, -0.399414, -1.220703, -3.295899, -3.173829
293192, 0.275391, 0.880371, -0.406616, 1.281738, -3.723145, -4.699707
293212, 0.280640, 0.877930, -0.419556, 1.892090, -3.784181, -5.981447
293232, 0.276245, 0.875610, -0.432617, 1.403809, -4.760742, -7.324221
293252, 0.248535, 0.871582, -0.441528, -0.122070, -5.432129, -7.629396
293272, 0.219360, 0.873779, -0.442139, -1.892090, -3.662110, -5.981447
293292, 0.217896, 0.878662, -0.427734, -3.051759, -1.159668, -3.479005
293312, 0.229980, 0.881958, -0.415161, -2.990724, 0.610352, -1.708985
293332, 0.237793, 0.883301, -0.416016, -2.746582, 0.854492, -0.366211
293352, 0.239868, 0.880981, -0.416870, -2.502441, 1.525879, 0.366211
293372, 0.248291, 0.881348, -0.413696, -2.624512, 1.831055, 1.770020
293392, 0.268066, 0.886108, -0.405396, -2.258301, 1.098633, 1.342773
293412, 0.268555, 0.885986, -0.398193, -1.037598, -0.061035, 0.366211
293432, 0.270264, 0.886597, -0.403687, 0.122070, -0.732422, -0.732422
293452, 0.257690, 0.882202, -0.414429, 0.183106, -1.159668, -1.464844
293472, 0.249512, 0.882690, -0.415283, 0.000000, -0.854492, -1.403809
293492, 0.246826, 0.880615, -0.421021, -0.427246, -0.488281, -1.037598
293512, 0.250366, 0.882690, -0.415039, -0.915528, -0.305176, -0.488281
293532, 0.258179, 0.885254, -0.406616, -0.732422, -0.244141, -0.793457
293552, 0.248047, 0.885498, -0.405640, -0.305176, -0.183106, -0.732422
293572, 0.250244, 0.885620, -0.409180, 0.244141, 0.366211, 0.122070
293592, 0.257568, 0.884399, -0.408203, 0.549316, 1.037598, -0.122070
293612, 0.267334, 0.881348, -0.422974, 0.122070, 0.122070, -0.610352
293632, 0.267700, 0.881348, -0.419800, -0.976563, -2.075195, -1.342773
293652, 0.259399, 0.885620, -0.411621, -1.281738, -2.624512, -2.014160
293672, 0.248291, 0.885498, -0.402832, -1.098633, -1.647950, -2.136230
293692, 0.257202, 0.887817, -0.401611, -0.305176, -1.281738, -2.014160
293712, 0.274780, 0.886597, -0.408081, 0.061035, -2.929688, -3.173829
293732, 0.252686, 0.885498, -0.412842, -0.061035, -4.028320, -4.272461
293752, 0.225830, 0.882202, -0.424194, -0.915528, -1.708985, -2.624512
293772, 0.241211, 0.883301, -0.425171, -2.441406, -2.014160, -1.464844
293792, 0.232300, 0.887573, -0.410767, -3.173829, -2.014160, -0.671387
293812, 0.234131, 0.887939, -0.405273, -2.990724, -1.159668, 0.549316
293832, 0.258301, 0.890381, -0.401978, -2.868653, -0.549316, 0.244141
293852, 0.261597, 0.893188, -0.389648, -1.892090, -1.647950, -0.854492
293872, 0.249146, 0.893066, -0.390381, -0.610352, -1.770020, -1.525879
293892, 0.248413, 0.891724, -0.398438, 0.244141, -1.586915, -1.647950
293912, 0.244873, 0.889404, -0.400879, 0.610352, -2.075195, -1.525879
293932, 0.246094, 0.890503, -0.406738, 0.610352, -2.319336, -1.586915
293952, 0.238159, 0.889282, -0.408325, 0.305176, -1.464844, -1.281738
293972, 0.241333, 0.888306, -0.408936, 0.061035, -1.037598, -0.915528
293992, 0.251953, 0.885498, -0.407715, -0.366211, -1.220703, -1.220703
294012, 0.256348, 0.889038, -0.400879, -0.427246, -1.892090, -2.075195
294032, 0.243530, 0.893311, -0.397583, 0.244141, -2.075195, -2.624512
294052, 0.238770, 0.890747, -0.404663, 0.549316, -2.136230, -2.502441
294072, 0.228882, 0.888428, -0.411865, 0.183106, -1.647950, -1.708985
294092, 0.236938, 0.892334, -0.409180, -0.488281, -0.915528, -1.281738
294112, 0.229858, 0.891113, -0.402222, -0.366211, -0.915528, -0.671387
294132, 0.230957, 0.892212, -0.400513, -0.122070, 0.000000, 0.244141
294152, 0.234863, 0.890503, -0.406250, 0.000000, 0.732422, 0.976563
294172, 0.251465, 0.890137, -0.407837, -0.427246, 0.610352, 0.793457
294192, 0.256958, 0.892578, -0.399414, -0.427246, -0.488281, -0.183106
294212, 0.249878, 0.891602, -0.400757, -0.061035, -1.464844, -0.976563
294232, 0.233154, 0.891357, -0.400024, 0.061035, -1.342773, -0.976563
294252, 0.222656, 0.888794, -0.403320, 0.122070, -0.366211, 0.183106
294272, 0.231445, 0.888794, -0.410156, -0.366211, 0.976563, 1.220703
294292, 0.240601, 0.888916, -0.406860, -0.976563, 1.037598, 1.770020
294312, 0.253784, 0.888550, -0.403931, -1.464844, -0.305176, 1.159668
294332, 0.255493, 0.893433, -0.389282, -0.915528, -0.793457, 0.488281
294352, 0.263916, 0.895508, -0.388916, 0.122070, -1.220703, -0.732422
294372, 0.258179, 0.894897, -0.390625, 0.976563, -2.319336, -1.953125
294392, 0.244995, 0.893188, -0.398926, 1.525879, -2.624512, -2.441406
294412, 0.234375, 0.889282, -0.405151, 1.281738, -2.014160, -2.075195
294432, 0.238892, 0.890137, -0.406616, 0.854492, -1.770020, -1.403809
294452, 0.248291, 0.892212, -0.407349, 0.366211, -2.014160, -1.770020
294472, 0.229858, 0.891724, -0.399780, 0.305176, -1.586915, -1.586915
294492, 0.230713, 0.892334, -0.402832, 0.366211, -0.610352, -0.671387
294512, 0.231934, 0.891357, -0.405151, 0.122070, 0.610352, 0.000000
294532, 0.234497, 0.889526, -0.404175, -0.305176, 0.915528, 0.671387
294552, 0.240723, 0.894043, -0.394409, 0.000000, 1.098633, 1.098633
294572, 0.251709, 0.891846, -0.396606, 0.549316, 0.610352, 0.793457
294592, 0.255615, 0.891724, -0.403076, 0.671387, -0.427246, 0.000000
294612, 0.239868, 0.888672, -0.409912, 0.122070, -0.305176, -0.305176
294632, 0.238281, 0.890137, -0.403442, -0.427246, 0.183106, 0.244141
294652, 0.245117, 0.893066, -0.396606, -0.427246, 0.366211, 0.366211
294672, 0.254395, 0.892578, -0.391113, 0.244141, -0.061035, 0.122070
294692, 0.256714, 0.892090, -0.403687, 0.549316, -1.037598, -1.281738
294712, 0.249390, 0.890991, -0.400269, 0.488281, -1.892090, -1.708985
294732, 0.239990, 0.891724, -0.398193, 0.427246, -1.647950, -1.708985
294752, 0.236938, 0.892578, -0.400269, 0.610352, -1.403809, -1.342773
294772, 0.234497, 0.893433, -0.395752, 0.732422, -0.915528, -0.671387
294792, 0.245972, 0.892822, -0.400757, 0.976563, -0.549316, -0.427246
294812, 0.248291, 0.890869, -0.407349, 0.610352, -0.854492, -0.854492
294832, 0.243652, 0.888794, -0.409058, -0.061035, -1.342773, -0.976563
294852, 0.239624, 0.890747, -0.402222, -0.671387, -1.098633, -0.793457
294872, 0.240356, 0.895264, -0.389771, -0.183106, -0.671387, -0.671387
294892, 0.251587, 0.892212, -0.398438, 0.732422, -0.915528, -1.037598
294912, 0.240112, 0.891602, -0.403931, 0.610352, -1.464844, -1.281738
294932, 0.232178, 0.890991, -0.408203, 0.183106, -0.915528, -0.793457
294952, 0.229370, 0.891113, -0.404175, -0.488281, 0.061035, -0.122070
294972, 0.236572, 0.894287, -0.395020, -0.305176, 0.732422, 0.610352
294992, 0.246826, 0.892456, -0.398315, 0.000000, 0.488281, 0.610352
295012, 0.252686, 0.894897, -0.393311, 0.183106, -0.244141, 0.122070
295032, 0.249146, 0.892334, -0.397217, 0.732422, -0.854492, -0.610352
295052, 0.236816, 0.891479, -0.401489, 0.427246, -0.549316, -0.671387
295072, 0.241211, 0.891724, -0.402832, 0.305176, -0.305176, 0.000000
295092, 0.243530, 0.893433, -0.399170, 0.183106, -0.244141, 0.183106
295112, 0.249634, 0.891968, -0.399048, 0.122070, -0.427246, -0.183106
295132, 0.237427, 0.893188, -0.395630, 0.366211, 0.122070, -0.244141
295152, 0.237061, 0.892090, -0.398560, 0.427246, 0.732422, 0.305176
295172, 0.237671, 0.892822, -0.401733, 0.305176, 1.464844, 0.732422
295192, 0.232422, 0.890259, -0.404663, -0.122070, 2.380371, 1.464844
295212, 0.248169, 0.889893, -0.400513, -0.671387, 2.258301, 2.075195
295232, 0.265015, 0.893799, -0.392334, -0.549316, 1.281738, 1.464844
295252, 0.270386, 0.893555, -0.391113, 0.000000, 0.183106, -0.122070
295272, 0.264893, 0.891846, -0.394531, 0.427246, -1.403809, -1.586915
295292, 0.271118, 0.893433, -0.390259, 0.793457, -2.624512, -3.112794
295312, 0.266357, 0.895386, -0.387207, 1.403809, -3.662110, -4.821777
295332, 0.238892, 0.895020, -0.390991, 2.258301, -4.089355, -5.432129
295352, 0.204590, 0.890503, -0.402222, 2.258301, -2.807618, -3.601075
295372, 0.205200, 0.888794, -0.409058, 1.647950, -0.610352, -0.671387
295392, 0.210083, 0.889404, -0.413452, 0.610352, 1.708985, 1.647950
295412, 0.223633, 0.886353, -0.416138, -0.671387, 3.356935, 3.540040
295432, 0.240356, 0.886353, -0.416626, -2.380371, 3.540040, 4.394531
295452, 0.251099, 0.890259, -0.394653, -3.112794, 3.845216, 4.699707
295472, 0.291016, 0.895508, -0.381470, -2.685547, 3.051759, 3.112794
295492, 0.315186, 0.902100, -0.357056, -0.244141, -1.220703, -0.854492
295512, 0.268677, 0.900635, -0.370850, 2.441406, -4.089355, -3.906251
295532, 0.223755, 0.892334, -0.394287, 3.356935, -3.234864, -3.173829
295552, 0.208496, 0.886108, -0.412720, 2.563477, -1.159668, -0.488281
295572, 0.224365, 0.886353, -0.422852, 0.549316, 1.464844, 1.831055
295592, 0.240479, 0.886719, -0.412109, -1.281738, 2.136230, 3.051759
295612, 0.256714, 0.891846, -0.394653, -1.831055, 2.319336, 3.234864
295632, 0.278564, 0.892578, -0.384644, -1.281738, 0.976563, 2.319336
295652, 0.283569, 0.895630, -0.379028, 0.000000, -2.441406, -1.098633
295672, 0.258667, 0.897339, -0.375000, 1.647950, -2.746582, -2.441406
295692, 0.239502, 0.892456, -0.391602, 2.563477, -1.403809, -2.136230
295712, 0.233887, 0.887207, -0.408203, 2.014160, -0.732422, -0.610352
295732, 0.244507, 0.886353, -0.409058, 0.793457, -0.122070, 0.427246
295752, 0.255249, 0.892700, -0.396362, 0.244141, 0.305176, 0.488281
295772, 0.262817, 0.891479, -0.392822, 0.549316, 0.000000, 0.000000
295792, 0.260254, 0.892456, -0.390503, 0.732422, -0.854492, -0.549316
295812, 0.232666, 0.895630, -0.377686, 1.770020, -0.915528, -0.061035
295832, 0.207520, 0.888184, -0.401367, 3.479005, 3.173829, 4.150391
295852, 0.214722, 0.880493, -0.428711, 1.586915, 7.141115, 7.141115
295872, 0.240601, 0.875488, -0.433716, -1.647950, 9.155273, 9.521484
295892, 0.267944, 0.882690, -0.415649, -4.272461, 8.972168, 10.192871
295912, 0.280273, 0.893555, -0.365845, -4.272461, 11.291508, 9.521484
295932, 0.320557, 0.896851, -0.344849, -0.427246, 7.873537, 7.995607
295952, 0.330688, 0.895996, -0.363037, 2.258301, 4.211426, 4.089355
295972, 0.276611, 0.884399, -0.385254, 3.662110, 4.516602, 2.075195
295992, 0.289795, 0.876953, -0.396973, 2.929688, 3.051759, 3.234864
296012, 0.340332, 0.880127, -0.402832, 2.136230, 1.342773, 0.549316
296032, 0.305664, 0.884155, -0.394409, 1.220703, -5.187988, -4.638672
296052, 0.273193, 0.888550, -0.395630, 0.854492, -4.699707, -4.821777
296072, 0.253174, 0.873779, -0.406372, -0.366211, -0.671387, -5.065918
296092, 0.267944, 0.890625, -0.369019, 0.671387, -1.647950, -1.647950
296112, 0.346924, 0.900757, -0.397949, 1.525879, -4.394531, -5.920412
296132, 0.346802, 0.877197, -0.393188, 1.037598, -7.629396, -17.089844
296152, 0.269287, 0.889404, -0.343506, 3.234864, -14.709476, -11.474613
296172, 0.248169, 0.883057, -0.397705, 5.615236, -10.498047, -11.474613
296192, 0.225586, 0.887573, -0.408447, 4.272461, -6.286623, -10.498047
296212, 0.220093, 0.881104, -0.429565, 2.746582, -5.432129, -6.469728
296232, 0.206543, 0.880249, -0.432251, 0.061035, -3.112794, -3.784181
296252, 0.199829, 0.887085, -0.407837, -1.403809, -0.610352, -0.366211
296272, 0.205078, 0.892700, -0.387207, -0.793457, 2.075195, 3.112794
296292, 0.211670, 0.894165, -0.393433, 0.305176, 4.760742, 5.859377
296312, 0.209717, 0.885620, -0.403076, 0.671387, 7.629396, 9.033203
296332, 0.250000, 0.876587, -0.427124, -0.854492, 9.643555, 11.230473
296352, 0.311646, 0.881958, -0.414551, -3.234864, 7.934572, 9.521484
296372, 0.316650, 0.896362, -0.365845, -2.441406, 3.601075, 6.103518
296392, 0.291016, 0.898682, -0.351440, 1.403809, 1.647950, 3.723145
296412, 0.270508, 0.883179, -0.395020, 3.845216, 2.746582, 3.356935
296432, 0.279053, 0.879272, -0.409424, 3.234864, 2.014160, 3.540040
296452, 0.285767, 0.877441, -0.417725, 1.647950, 1.892090, 3.112794
296472, 0.297607, 0.883301, -0.395874, 0.732422, 1.708985, 1.831055
296492, 0.294312, 0.887207, -0.378052, 2.014160, 0.427246, 0.610352
296512, 0.282715, 0.882813, -0.391235, 3.234864, -0.183106, -0.122070
296532, 0.271973, 0.878540, -0.406372, 3.112794, 0.244141, 0.244141
296552, 0.267700, 0.877319, -0.410156, 2.075195, 1.525879, 0.915528
296572, 0.272827, 0.879028, -0.400146, 1.647950, 3.234864, 1.708985
296592, 0.311523, 0.882080, -0.388672, 2.563477, 3.112794, 0.061035
296612, 0.300537, 0.880005, -0.392212, 3.540040, 1.708985, -1.647950
296632, 0.289307, 0.876953, -0.407715, 3.356935, 0.488281, -2.136230
296652, 0.283447, 0.876953, -0.404663, 2.990724, 0.122070, -2.197266
296672, 0.278564, 0.874756, -0.411255, 2.746582, 0.854492, -2.136230
296692, 0.291016, 0.877441, -0.408447, 1.831055, 0.671387, -1.953125
296713, 0.316650, 0.882690, -0.389648, 2.502441, -1.342773, -3.540040
296733, 0.300781, 0.883057, -0.384521, 4.028320, -3.723145, -5.676271
296753, 0.289551, 0.882813, -0.388794, 6.408693, -4.516602, -7.019045
296773, 0.291870, 0.880493, -0.394897, 7.873537, -5.737307, -8.361816
296793, 0.268677, 0.874878, -0.420410, 8.117676, -7.202150, -8.850098
296813, 0.232300, 0.871338, -0.437256, 6.774904, -6.530764, -7.324221
296833, 0.215942, 0.869995, -0.442627, 4.699707, -2.258301, -4.333496
296853, 0.252441, 0.875610, -0.419556, 3.723145, 0.122070, -2.319336
296873, 0.274536, 0.874512, -0.421265, 3.906251, 0.244141, -2.746582
296893, 0.268677, 0.879272, -0.411133, 4.333496, -1.342773, -3.295899
296913, 0.258057, 0.876099, -0.416748, 5.493164, -2.380371, -2.990724
296933, 0.254150, 0.868530, -0.452393, 4.577637, -2.197266, -2.685547
296953, 0.208618, 0.863403, -0.457520, 0.183106, 0.854492, 0.366211
296973, 0.223511, 0.863037, -0.437988, -1.831055, 4.699707, 3.540040
296993, 0.293579, 0.888916, -0.447876, -2.563477, 6.469728, 3.723145
297013, 0.289551, 0.853882, -0.445923, -4.516602, 5.981447, 0.610352
297033, 0.305908, 0.871338, -0.441650, -6.835939, 0.000000, -0.427246
297053, 0.270508, 0.874634, -0.422363, -7.568361, -2.502441, -2.319336
297073, 0.239014, 0.878174, -0.422119, -7.995607, -0.549316, -0.671387
297093, 0.262939, 0.882080, -0.406494, -8.056641, 1.403809, -0.183106
297113, 0.277832, 0.888184, -0.383179, -6.591799, 1.098633, -0.183106
297133, 0.294678, 0.892944, -0.368896, -1.953125, -2.685547, -2.685547
297153, 0.252441, 0.887695, -0.390869, 0.366211, -2.868653, -2.563477
297173, 0.243896, 0.881836, -0.411133, 0.671387, -0.793457, -1.464844
297193, 0.247925, 0.875122, -0.436768, -0.854492, 1.647950, -0.549316
297213, 0.258057, 0.875732, -0.429565, -3.540040, 1.892090, 0.305176
297233, 0.275024, 0.889771, -0.383789, -3.662110, 1.159668, 0.427246
297253, 0.285156, 0.899292, -0.348022, -0.183106, -0.854492, -0.793457
297273, 0.280151, 0.899902, -0.343262, 5.187988, -2.380371, -1.892090
297293, 0.267334, 0.887329, -0.394775, 8.361816, -2.624512, -2.807618
297313, 0.225708, 0.873413, -0.446655, 6.774904, -0.976563, -1.708985
297333, 0.221558, 0.861938, -0.470337, -0.366211, 2.990724, 3.967286
297353, 0.261963, 0.874023, -0.434204, -4.089355, 4.516602, 5.554201
297373, 0.299194, 0.883179, -0.400024, -4.394531, 3.417970, 4.394531
297393, 0.313721, 0.888672, -0.377930, -2.868653, 0.671387, 1.586915
297413, 0.309204, 0.893433, -0.357422, 0.488281, -2.441406, -1.281738
297433, 0.286865, 0.889771, -0.381592, 3.784181, -3.662110, -3.601075
297453, 0.244629, 0.875122, -0.428467, 3.723145, -2.746582, -3.173829
297473, 0.232910, 0.868652, -0.451050, 0.305176, -0.854492, -0.854492
297493, 0.233276, 0.877808, -0.422119, -2.136230, 0.732422, 1.708985
297513, 0.278442, 0.885620, -0.389648, -1.770020, 2.319336, 4.028320
297533, 0.330078, 0.893677, -0.360474, 0.671387, -0.305176, 1.281738
297553, 0.340210, 0.901733, -0.332275, 5.981447, -6.164553, -3.356935
297573, 0.307983, 0.898071, -0.341064, 12.329105, -10.925293, -6.958010
297593, 0.266357, 0.881958, -0.401367, 15.930180, -12.207035, -8.300781
297613, 0.211304, 0.863892, -0.468140, 14.038090, -11.169437, -6.286623
297633, 0.181030, 0.850586, -0.512329, 8.117676, -7.507326, -1.220703
297653, 0.187012, 0.849854, -0.519409, 0.427246, -1.525879, 3.906251
297673, 0.214722, 0.851318, -0.510620, -7.080080, 4.211426, 7.629396
297693, 0.253784, 0.861816, -0.465576, -12.451176, 5.676271, 9.582520
297713, 0.300049, 0.880371, -0.395996, -13.183598, 1.953125, 8.544922
297733, 0.291992, 0.887695, -0.378906, -10.681152, 0.183106, 6.530764
297753, 0.268433, 0.886108, -0.379639, -8.178711, 0.488281, 6.286623
297773, 0.275269, 0.882568, -0.378418, -6.042482, 0.793457, 6.896975
297793, 0.293823, 0.882080, -0.388062, -4.333496, -0.366211, 6.347658
297813, 0.283325, 0.879761, -0.407715, -3.967286, 0.671387, 5.615236
297833, 0.278809, 0.876587, -0.412720, -5.371094, 2.624512, 5.310059
297853, 0.266113, 0.887085, -0.380737, -5.187988, 4.333496, 6.286623
297873, 0.269165, 0.893188, -0.360352, -2.624512, 6.835939, 7.629396
297893, 0.294189, 0.876831, -0.374023, 0.793457, 7.995607, 8.911133
297913, 0.289307, 0.875366, -0.379150, 1.586915, 6.896975, 9.521484
297933, 0.300659, 0.887939, -0.365356, 2.746582, 8.239746, 10.253906
297953, 0.347900, 0.887939, -0.351563, 6.530764, 8.850098, 8.972168
297973, 0.358154, 0.878906, -0.387085, 7.995607, 10.498047, 4.455566
297993, 0.373047, 0.860229, -0.398926, 8.178711, 8.850098, 1.281738
298013, 0.404297, 0.858398, -0.412231, 6.958010, 1.525879, -3.784181
298033, 0.370483, 0.856323, -0.437500, 4.516602, -3.479005, -8.972168
298053, 0.330688, 0.859497, -0.437134, 0.793457, -6.835939, -10.986328
298073, 0.306885, 0.862305, -0.429688, -2.075195, -5.737307, -11.779789
298093, 0.298218, 0.880981, -0.430298, -5.920412, -3.234864, -13.488773
298113, 0.291870, 0.868042, -0.454346, -14.709476, -5.065918, -15.441898
298133, 0.242798, 0.890747, -0.332031, -14.099125, -15.014652, -9.155273
298153, 0.184082, 0.890991, -0.322876, -4.333496, -13.305668, -1.831055
298173, 0.160522, 0.893066, -0.411011, -1.708985, -0.427246, 2.807618
298193, 0.179688, 0.858521, -0.465576, -6.408693, 8.728027, 7.751467
298213, 0.240234, 0.850464, -0.426392, -11.596684, 9.094238, 14.282230
298233, 0.294800, 0.861206, -0.382202, -13.427738, 12.695316, 20.996094
298253, 0.390137, 0.874634, -0.387451, -14.648441, 13.244633, 19.714355
298273, 0.458618, 0.887329, -0.343262, -16.418457, 3.845216, 6.225588
298293, 0.464966, 0.906616, -0.280884, -12.207035, -7.995607, -3.417970
298313, 0.429565, 0.925659, -0.223267, -2.563477, -20.751953, -13.793949
298333, 0.335815, 0.917969, -0.259766, 8.972168, -27.709969, -20.629883
298353, 0.216064, 0.879272, -0.367310, 11.230473, -23.315437, -16.784668
298373, 0.155273, 0.882935, -0.388062, 7.873537, -15.563969, -5.554201
298393, 0.185669, 0.888062, -0.373901, 7.568361, -5.493164, 2.746582
298413, 0.240723, 0.881104, -0.406006, 6.164553, 3.112794, 6.774904
298433, 0.274414, 0.874512, -0.415161, 2.807618, 5.859377, 8.728027
298453, 0.298828, 0.875732, -0.398926, 0.061035, 5.676271, 9.704590
298473, 0.355225, 0.882202, -0.366211, -0.854492, 4.028320, 6.713869
298493, 0.372925, 0.887451, -0.344849, 0.610352, 0.854492, 2.136230
298513, 0.384766, 0.890503, -0.343384, 3.112794, -2.685547, -3.234864
298533, 0.357788, 0.891357, -0.342529, 5.493164, -5.920412, -8.483887
298553, 0.316284, 0.891724, -0.351563, 8.239746, -7.629396, -10.620117
298573, 0.279419, 0.881226, -0.384399, 8.972168, -5.737307, -10.681152
298593, 0.271362, 0.882568, -0.399048, 8.483887, -7.019045, -8.300781
298613, 0.258179, 0.870117, -0.442627, 5.004883, -3.662110, -6.774904
298633, 0.255981, 0.871338, -0.424316, 1.159668, -1.525879, -4.333496
298653, 0.255737, 0.881348, -0.401001, -2.075195, 0.976563, -0.732422
298673, 0.264893, 0.886841, -0.372314, -1.586915, 2.685547, 1.342773
298693, 0.295532, 0.888184, -0.358398, 0.122070, 3.540040, 1.770020
298713, 0.321045, 0.890381, -0.358154, 2.929688, 2.624512, 0.122070
298733, 0.333740, 0.883179, -0.381104, 4.089355, 0.488281, -2.868653
298753, 0.324219, 0.883667, -0.383301, 4.333496, -2.563477, -5.676271
298773, 0.302002, 0.884033, -0.379761, 4.943848, -4.272461, -7.324221
298793, 0.265869, 0.883911, -0.388428, 5.676271, -3.051759, -7.385256
298813, 0.253174, 0.881226, -0.401978, 5.371094, -0.183106, -5.737307
298833, 0.257080, 0.877563, -0.410889, 4.333496, 2.136230, -3.845216
298853, 0.289551, 0.876953, -0.418091, 1.770020, 2.807618, -2.929688
298873, 0.298218, 0.877075, -0.416748, 0.122070, 1.464844, -4.272461
298893, 0.285400, 0.877930, -0.411743, -1.586915, 0.427246, -5.126953
298913, 0.281616, 0.883667, -0.393311, -2.197266, -0.549316, -5.310059
298933, 0.275879, 0.888428, -0.383301, -1.525879, 0.061035, -5.554201
298953, 0.271118, 0.885986, -0.385864, -0.671387, 0.427246, -5.554201
298973, 0.265503, 0.883301, -0.396606, -0.549316, -0.244141, -4.943848
298993, 0.262451, 0.884644, -0.401001, -1.281738, -0.854492, -4.089355
299013, 0.265259, 0.890137, -0.386963, -1.403809, -1.098633, -3.540040
299033, 0.262939, 0.892212, -0.381470, -0.122070, -0.061035, -3.112794
299053, 0.266357, 0.887207, -0.392822, 0.244141, 0.061035, -2.929688
299073, 0.262695, 0.886108, -0.397217, -0.244141, -0.793457, -2.502441
299093, 0.263306, 0.890137, -0.396606, -0.671387, -0.671387, -1.953125
299113, 0.260986, 0.883911, -0.403687, -1.586915, 0.305176, -2.014160
299133, 0.272583, 0.886963, -0.401611, -2.746582, -0.610352, -1.647950
299153, 0.297729, 0.889771, -0.382568, -3.112794, -1.586915, -3.173829
299173, 0.304077, 0.896973, -0.365479, -1.647950, -4.455566, -5.981447
299193, 0.291260, 0.898315, -0.373657, -0.183106, -7.324221, -8.483887
299213, 0.253784, 0.895752, -0.379883, 0.732422, -6.225588, -9.521484
299233, 0.206177, 0.895142, -0.389526, 1.403809, -3.784181, -7.019045
299253, 0.193481, 0.887695, -0.415527, 0.122070, -0.122070, -3.234864
299273, 0.210083, 0.888184, -0.410400, -2.014160, 1.770020, 0.366211
299293, 0.246338, 0.889771, -0.409180, -3.906251, 2.929688, 1.953125
299313, 0.280762, 0.898926, -0.378296, -4.516602, 1.220703, 0.793457
299333, 0.263916, 0.903076, -0.348389, -2.502441, -0.732422, -0.976563
299353, 0.255127, 0.912354, -0.334717, 1.708985, -1.953125, -0.732422
299373, 0.250488, 0.901245, -0.360718, 4.272461, -0.610352, -1.464844
299393, 0.235840, 0.895508, -0.378906, 5.615236, -0.244141, -0.854492
299413, 0.263184, 0.891479, -0.394165, 4.699707, 0.915528, 0.244141
299433, 0.311279, 0.894287, -0.391602, 4.821777, -1.281738, -2.624512
299453, 0.310547, 0.885986, -0.417847, 3.601075, -5.493164, -7.324221
299473, 0.272583, 0.889771, -0.418579, 1.037598, -8.056641, -10.192871
299493, 0.234009, 0.880981, -0.428101, -1.098633, -8.056641, -10.925293
299513, 0.191284, 0.893311, -0.420166, -4.272461, -5.920412, -8.850098
299533, 0.169067, 0.897461, -0.394531, -4.821777, -2.136230, -4.516602
299553, 0.192505, 0.892944, -0.399536, -5.310059, -1.525879, -0.122070
299573, 0.197510, 0.890747, -0.419556, -7.446291, 0.244141, 2.563477
299593, 0.189819, 0.900757, -0.338257, -7.202150, 2.929688, 7.446291
299613, 0.226807, 0.925415, -0.290527, -0.915528, 4.821777, 10.009766
299633, 0.275513, 0.918091, -0.315674, 6.164553, 5.676271, 8.605957
299653, 0.286499, 0.898193, -0.373657, 8.911133, 3.662110, 5.859377
299673, 0.270386, 0.888794, -0.408081, 7.812502, 2.014160, 3.540040
299693, 0.225952, 0.888672, -0.409058, 5.798342, 3.173829, 3.723145
299713, 0.199341, 0.886597, -0.411499, 4.089355, 8.117676, 6.591799
299733, 0.224609, 0.881470, -0.424316, 1.403809, 12.634281, 9.948730
299753, 0.286133, 0.883423, -0.408447, -1.220703, 12.451176, 10.498047
299773, 0.345581, 0.892334, -0.375854, -1.647950, 10.620117, 6.652834
299793, 0.465088, 0.914429, -0.281006, 5.249023, -4.211426, -8.117676
299813, 0.412231, 0.921387, -0.267822, 15.136723, -19.104004, -20.324707
299833, 0.270752, 0.901245, -0.345459, 23.193367, -25.451668, -25.268562
299853, 0.140503, 0.867920, -0.467773, 21.179199, -19.775391, -22.216805
299873, 0.076904, 0.856323, -0.513794, 13.488773, -9.887695, -11.840824
299893, 0.118652, 0.856201, -0.526367, 4.760742, -2.258301, -1.708985
299913, 0.147827, 0.853760, -0.537476, -5.065918, 2.807618, 5.249023
299933, 0.166870, 0.872437, -0.466187, -12.817387, 8.117676, 10.620117
299953, 0.185913, 0.900269, -0.365234, -12.756351, 13.488773, 14.648441
299973, 0.229126, 0.902466, -0.333130, -3.479005, 18.005371, 18.981934
299993, 0.248169, 0.887695, -0.372681, 0.000000, 19.348145, 20.141602
300013, 0.263794, 0.883545, -0.386108, 0.793457, 20.874023, 21.179199
300033, 0.317871, 0.879150, -0.388062, 1.525879, 23.071297, 19.958496
300053, 0.413940, 0.873535, -0.400146, 0.976563, 22.399910, 13.366703
300073, 0.467285, 0.876709, -0.395508, 0.305176, 12.939457, 2.868653
300093, 0.466553, 0.882935, -0.373413, 0.793457, -2.990724, -8.300781
300113, 0.388794, 0.888184, -0.349121, 3.112794, -12.878422, -16.906738
300133, 0.300171, 0.894653, -0.331055, 7.751467, -14.953617, -20.263672
300153, 0.247314, 0.890259, -0.354126, 12.512211, -15.258793, -18.859863
300173, 0.177734, 0.875610, -0.423828, 12.573246, -12.573246, -11.779789
300193, 0.153564, 0.880005, -0.414063, 12.023930, -7.202150, -3.906251
300213, 0.183594, 0.872437, -0.438354, 11.047363, 0.305176, 3.112794
300233, 0.272827, 0.869629, -0.435181, 9.277344, 4.577637, 5.187988
300253, 0.367065, 0.869507, -0.438599, 7.812502, 2.746582, 0.488281
300273, 0.404053, 0.878906, -0.407227, 7.507326, -5.187988, -8.544922
300293, 0.323242, 0.883179, -0.389893, 10.620117, -14.526371, -15.502934
300313, 0.182251, 0.858887, -0.476563, 10.742188, -14.160160, -14.404301
300333, 0.113892, 0.830811, -0.578735, 1.892090, -4.760742, -6.225588
300353, 0.181519, 0.842163, -0.548584, -17.883301, 6.347658, 5.554201
300373, 0.265259, 0.879517, -0.417969, -21.911621, 8.483887, 7.141115
300393, 0.306885, 0.903687, -0.334839, -17.089844, 5.859377, 4.272461
300413, 0.282837, 0.904541, -0.319946, -9.277344, 1.647950, 2.075195
300433, 0.278931, 0.891602, -0.371460, -3.662110, -0.488281, 1.098633
300453, 0.279907, 0.875977, -0.440552, -4.211426, -0.671387, -0.488281
300473, 0.272339, 0.868896, -0.454468, -8.178711, -0.305176, -1.708985
300493, 0.279785, 0.878174, -0.419556, -11.230473, -0.366211, -2.929688
300513, 0.288818, 0.896240, -0.367920, -10.437012, -1.831055, -4.699707
300533, 0.274658, 0.902344, -0.350708, -7.019045, -3.540040, -6.530764
300553, 0.274170, 0.907349, -0.344482, -1.586915, -3.967286, -7.568361
300573, 0.293945, 0.906250, -0.339478, 3.112794, -5.676271, -10.375977
300593, 0.264282, 0.900269, -0.365601, 6.469728, -7.446291, -12.695316
300613, 0.223389, 0.888428, -0.417358, 6.835939, -8.483887, -12.573246
300633, 0.171997, 0.883789, -0.437012, 3.845216, -8.361816, -8.728027
300653, 0.145020, 0.877319, -0.453857, 0.366211, -6.286623, -2.380371
300673, 0.130493, 0.884033, -0.439819, -4.272461, -0.488281, 4.455566
300693, 0.144043, 0.896118, -0.402222, -5.615236, 6.835939, 11.352543
300713, 0.204102, 0.892456, -0.396973, -5.737307, 11.840824, 15.869144
300733, 0.289307, 0.890625, -0.393555, -6.164553, 12.695316, 14.953617
300753, 0.320190, 0.893921, -0.379517, -5.798342, 8.361816, 11.352543
300773, 0.323364, 0.895142, -0.363403, -4.760742, 7.324221, 6.591799
300793, 0.353882, 0.902954, -0.337524, -1.647950, 3.295899, 1.037598
300813, 0.320801, 0.890259, -0.386719, 0.366211, -0.549316, -4.882813
300833, 0.258789, 0.885254, -0.407593, -1.770020, -1.708985, -6.042482
300853, 0.241211, 0.894897, -0.405273, -3.417970, -1.281738, -4.638672
300873, 0.221924, 0.877441, -0.402222, -5.737307, 1.464844, -2.746582
300893, 0.257446, 0.892212, -0.402832, -7.751467, 2.014160, -0.549316
300913, 0.287964, 0.891113, -0.394775, -10.009766, 1.892090, -2.136230
300933, 0.315918, 0.910645, -0.322998, -8.605957, -1.953125, -5.737307
300953, 0.327637, 0.922119, -0.293213, -3.295899, -6.713869, -10.559082
300973, 0.287720, 0.929077, -0.270386, 3.784181, -9.948730, -14.282230
300993, 0.252075, 0.924194, -0.289551, 11.840824, -10.375977, -15.808109
301013, 0.214966, 0.901978, -0.377686, 15.014652, -8.239746, -15.197758
301033, 0.194336, 0.875732, -0.478516, 9.948730, -5.249023, -12.878422
301053, 0.164917, 0.876953, -0.479858, 0.366211, -4.455566, -8.544922
301073, 0.133789, 0.898560, -0.390381, -3.540040, -1.770020, -2.075195
301093, 0.140869, 0.905762, -0.376709, -2.746582, 4.211426, 4.516602
301113, 0.237061, 0.893555, -0.404663, -5.798342, 10.559082, 9.948730
301133, 0.339355, 0.908203, -0.353882, -6.042482, 6.286623, 5.737307
301153, 0.345825, 0.917725, -0.327759, -2.807618, -1.159668, -2.624512
301173, 0.257813, 0.910889, -0.355957, 0.122070, -3.417970, -7.263186
301193, 0.205200, 0.892578, -0.425049, -2.014160, -0.305176, -6.408693
301213, 0.199341, 0.885864, -0.434814, -7.812502, 1.831055, -3.662110
301233, 0.247192, 0.906982, -0.367798, -11.108402, 1.525879, -2.319336
301253, 0.294312, 0.932495, -0.281982, -7.019045, -2.441406, -5.310059
301273, 0.271851, 0.933594, -0.279175, 0.793457, -5.981447, -9.277344
301293, 0.229980, 0.911377, -0.360474, 4.150391, -6.164553, -11.108402
301313, 0.177368, 0.898804, -0.411133, -1.037598, -2.929688, -7.995607
301333, 0.192139, 0.901367, -0.391968, -4.211426, -2.075195, -5.187988
301353, 0.207153, 0.915527, -0.355347, -5.493164, -1.647950, -3.845216
301373, 0.227661, 0.930664, -0.307129, -2.868653, -1.586915, -4.028320
301393, 0.257202, 0.934570, -0.293945, 2.746582, -2.868653, -6.286623
301413, 0.238159, 0.932617, -0.303711, 7.751467, -4.760742, -9.643555
301433, 0.166992, 0.920532, -0.343872, 11.413578, -4.333496, -8.911133
301453, 0.116333, 0.897705, -0.421265, 9.643555, 0.122070, -3.845216
301473, 0.125122, 0.886963, -0.460938, 2.624512, 5.371094, 2.746582
301493, 0.231201, 0.906128, -0.398438, -5.554201, 6.835939, 6.347658
301513, 0.278564, 0.922852, -0.334595, -5.187988, 3.723145, 2.746582
301533, 0.273438, 0.929932, -0.313599, -0.976563, -0.183106, -2.258301
301553, 0.207642, 0.917725, -0.348511, 1.953125, -2.502441, -4.211426
301573, 0.158569, 0.907349, -0.383667, 1.403809, -1.464844, -1.220703
301593, 0.167236, 0.908936, -0.385864, -0.610352, 2.014160, 2.502441
301613, 0.215820, 0.916504, -0.362915, -1.342773, 4.028320, 3.845216
301633, 0.264160, 0.919678, -0.347168, -0.427246, 1.892090, 1.464844
301653, 0.246948, 0.919678, -0.340576, 1.464844, -1.708985, -1.770020
301673, 0.203735, 0.914795, -0.362305, 2.563477, -1.831055, -1.464844
301693, 0.191895, 0.907593, -0.384277, 0.122070, 0.000000, -0.183106
301713, 0.214966, 0.911499, -0.369873, -0.793457, 0.854492, 0.854492
301733, 0.228027, 0.916260, -0.359375, -0.854492, 0.427246, -0.183106
301753, 0.208130, 0.917969, -0.348877, 0.183106, -0.061035, -0.366211
301773, 0.206665, 0.918213, -0.353271, 1.281738, 0.488281, 0.488281
301793, 0.218506, 0.913940, -0.360352, 1.831055, 1.098633, 0.671387
301813, 0.237427, 0.911255, -0.372437, 1.525879, 0.366211, -0.427246
301833, 0.237671, 0.912842, -0.369873, 0.854492, -1.464844, -2.136230
301853, 0.209717, 0.916626, -0.356079, 1.037598, -1.892090, -2.563477
301873, 0.207153, 0.916016, -0.355225, 2.502441, -0.183106, -1.831055
301893, 0.207153, 0.914551, -0.363525, 3.051759, 0.244141, -1.586915
301913, 0.187988, 0.910767, -0.373901, 2.807618, 1.403809, -0.366211
301933, 0.195435, 0.911743, -0.373169, 2.075195, 2.380371, 1.525879
301953, 0.207397, 0.914429, -0.370972, 1.892090, 2.563477, 2.624512
301973, 0.231201, 0.911621, -0.367798, 1.770020, 1.953125, 2.380371
301993, 0.232788, 0.913452, -0.358887, 2.075195, 1.464844, 1.281738
302013, 0.237305, 0.917969, -0.343750, 3.662110, 1.037598, -0.183106
302033, 0.247070, 0.917114, -0.350220, 5.737307, 0.000000, -1.770020
302053, 0.252686, 0.914795, -0.355591, 7.873537, -3.784181, -5.004883
302073, 0.221313, 0.908325, -0.378662, 8.239746, -5.004883, -5.798342
302093, 0.204102, 0.905884, -0.386475, 7.873537, -5.859377, -5.432129
302113, 0.178711, 0.903809, -0.398438, 6.835939, -5.371094, -3.784181
302133, 0.149658, 0.900146, -0.409790, 5.187988, -2.563477, -0.427246
302153, 0.129517, 0.891968, -0.417358, 2.441406, 1.464844, 4.882813
302173, 0.161133, 0.902832, -0.375122, 1.342773, 3.540040, 10.803223
302193, 0.233887, 0.909058, -0.363647, 3.601075, 1.831055, 11.962894
302213, 0.248169, 0.908325, -0.375854, 4.638672, 0.549316, 10.253906
302233, 0.273071, 0.906128, -0.368408, 6.103518, 0.000000, 7.507326
302253, 0.306396, 0.911377, -0.352173, 10.192871, -4.394531, -0.488281
302273, 0.290771, 0.901855, -0.382324, 13.183598, -11.657719, -5.187988
302293, 0.186401, 0.884888, -0.447754, 11.596684, -15.625004, -6.103518
302313, 0.085205, 0.877686, -0.472046, 6.469728, -12.756351, 1.831055
302333, 0.064819, 0.893066, -0.408691, 3.479005, -3.479005, 13.305668
302353, 0.161133, 0.909668, -0.351563, 6.408693, 4.760742, 21.118164
302373, 0.274170, 0.897949, -0.364624, 11.962894, 5.126953, 21.240234
302393, 0.313965, 0.881226, -0.416748, 13.977055, -4.211426, 17.700195
302413, 0.263916, 0.858643, -0.497314, 10.620117, -7.324221, 14.648441
302433, 0.301025, 0.875854, -0.417358, 3.356935, 2.197266, 10.131836
302453, 0.364990, 0.903931, -0.338623, 8.666992, 2.990724, 3.112794
302473, 0.396973, 0.897583, -0.345581, 16.662598, -2.258301, -6.958010
302493, 0.326660, 0.871094, -0.421631, 21.179199, -12.451176, -14.770512
302513, 0.120605, 0.826172, -0.572632, 15.563969, -9.155273, -12.756351
302533, 0.067505, 0.831909, -0.573120, 2.258301, 5.798342, -1.098633
302553, 0.197632, 0.874878, -0.424927, -1.342773, 21.728516, 5.004883
302573, 0.329224, 0.894531, -0.347656, 4.760742, 23.925789, 2.136230
302593, 0.344971, 0.877075, -0.411255, 11.535648, 13.977055, -3.967286
302613, 0.248413, 0.844727, -0.512451, 9.460449, 2.258301, -4.821777
302633, 0.247437, 0.864624, -0.450928, 2.807618, 4.028320, -0.854492
302653, 0.349609, 0.862549, -0.418091, 5.065918, 3.417970, -5.126953
302673, 0.353394, 0.886353, -0.450439, 6.713869, -3.723145, -13.122562
302693, 0.241943, 0.850220, -0.479980, 6.591799, -14.099125, -14.892582
302713, 0.094604, 0.820190, -0.581787, -0.915528, -10.498047, -8.056641
302733, 0.068848, 0.844482, -0.537476, -10.681152, -1.525879, 4.821777
302753, 0.162964, 0.860596, -0.462402, -13.916019, 8.911133, 13.427738
302773, 0.314331, 0.884399, -0.392334, -11.779789, 7.690432, 13.671879
302793, 0.390381, 0.891113, -0.380005, -5.920412, -1.037598, 5.676271
302813, 0.391479, 0.895142, -0.363403, 2.502441, -12.023930, -9.704590
302833, 0.340088, 0.892944, -0.379028, 8.972168, -14.953617, -18.981934
302853, 0.271118, 0.888306, -0.398071, 13.916019, -14.526371, -23.803719
302873, 0.174561, 0.889648, -0.385620, 21.789551, -11.169437, -22.155769
302893, 0.125122, 0.874756, -0.445313, 27.099617, -2.319336, -16.235352
302913, 0.104126, 0.872070, -0.516846, 24.292000, 8.850098, -10.681152
302933, 0.083496, 0.920654, -0.506958, 19.958496, 15.258793, -2.807618
302953, 0.094360, 1.032959, -0.509521, 20.019531, 11.840824, 7.019045
302973, 0.095581, 1.012573, -0.496460, 22.583015, 4.882813, 21.362305
302993, 0.175415, 0.921753, -0.508423, 20.507813, -3.967286, 34.790039
303013, 0.270752, 0.738403, -0.513916, 4.333496, -18.981934, 51.086441
303033, 0.240356, 0.772217, -0.538940, -16.174316, -17.883301, 68.359375
303053, 0.373291, 0.782104, -0.454102, -31.188972, -10.559082, 73.852539
303073, 0.556396, 0.697754, -0.402710, -39.001465, -10.314941, 59.326187
303093, 0.627563, 0.755981, -0.415161, -42.785645, -18.737793, 30.395515
303113, 0.613770, 0.713013, -0.352905, -37.109375, -38.879395, -4.943848
303133, 0.569702, 0.601318, -0.408936, -35.034180, -50.170914, -44.494644
303153, 0.390137, 0.695435, -0.430542, -36.560059, -61.889664, -80.871582
303173, -0.012451, 0.967529, -0.428711, -20.141602, -72.875977, -76.293945
303193, -0.212402, 1.108398, -0.513550, 17.578125, -34.301758, -6.225588
303213, 0.153076, 1.008545, -0.476196, 39.367676, 1.464844, 5.493164
303233, 0.350342, 0.865601, -0.512695, 54.687515, 4.211426, -18.432617
303253, 0.357910, 0.766602, -0.594971, 52.795425, -24.292000, -45.837418
303273, 0.250854, 0.683228, -0.529297, 42.846680, -58.959976, -65.734863
303293, 0.111328, 0.571411, -0.560181, 31.921394, -67.749023, -76.721191
303313, -0.166016, 0.562622, -0.761475, 4.516602, -54.626480, -59.265152
303333, -0.491089, 0.784790, -0.831299, -41.992188, -30.273445, -3.662110
303353, -0.341919, 0.960449, -0.506104, -53.405777, 5.126953, 43.640137
303373, -0.044800, 0.929565, -0.395874, -36.376953, 44.006348, 52.185074
303393, 0.175537, 0.833862, -0.569214, -35.339355, 77.148438, 41.198730
303413, 0.286865, 0.861694, -0.485962, -44.311539, 68.054199, 37.292480
303433, 0.364746, 0.953857, -0.362305, -42.724609, 54.199234, 27.709969
303453, 0.406860, 1.054077, -0.311279, -28.991707, 39.184570, 13.549809
303473, 0.405029, 1.046875, -0.303833, -9.765625, 22.338875, 5.187988
303493, 0.364380, 0.931885, -0.366821, 5.065918, 2.502441, 2.563477
303513, 0.326538, 0.821045, -0.453857, 7.446291, -6.164553, -1.464844
303533, 0.263184, 0.828979, -0.479736, 2.258301, -4.028320, -5.798342
303553, 0.202271, 0.879028, -0.455688, -1.098633, 2.014160, -6.591799
303573, 0.110840, 0.938477, -0.425659, 1.525879, 4.455566, 11.657719
303593, 0.159180, 0.867676, -0.398804, 2.685547, 6.591799, 19.287109
303613, 0.236572, 0.777344, -0.384277, -1.098633, 10.375977, 12.451176
303633, 0.248901, 0.741943, -0.362915, -5.981447, 4.516602, 2.990724
303653, 0.229126, 0.691040, -0.318726, -9.826660, -4.821777, -3.784181
303673, 0.185303, 0.654541, -0.277588, -12.512211, -6.286623, -6.286623
303693, 0.160645, 0.990845, -0.204346, -3.723145, 9.155273, 2.441406
303713, 0.345093, 1.440430, -0.217285, 36.987305, -8.300781, 7.751467
303733, 0.527222, 0.938232, -0.180176, 66.711426, -12.207035, -2.990724
303753, 0.397339, 0.851318, -0.614014, 71.411133, -24.902351, -24.169930
303773, -0.036865, 0.720947, -0.927368, 11.291508, -21.728516, -21.667480
303793, -0.133423, 0.788818, -0.646362, -8.239746, -5.920412, 2.014160
303813, 0.041870, 0.851074, -0.569336, -16.113281, 14.465336, 19.165039
303833, 0.139404, 0.872314, -0.412109, -16.174316, 23.620613, 26.062019
303853, 0.175049, 0.920288, -0.245850, 2.624512, 19.653320, 37.292480
303873, 0.338501, 0.890015, -0.385742, 16.540527, 19.226074, 36.743164
303893, 0.396973, 0.870850, -0.557007, 12.939457, 16.662598, 23.010262
303913, 0.353394, 0.870728, -0.595459, 4.455566, 3.295899, 12.390141
303933, 0.350586, 0.820313, -0.520142, -0.427246, -8.239746, 3.662110
303953, 0.309082, 0.757080, -0.494751, -5.554201, -7.629396, -7.324221
303973, 0.272461, 0.785522, -0.477539, -9.338379, -5.737307, -6.774904
303993, 0.262207, 0.823242, -0.453979, -7.873537, -7.751467, -4.455566
304013, 0.270996, 0.855591, -0.499512, -7.080080, -7.995607, -5.371094
304033, 0.305786, 0.883179, -0.518799, -10.314941, -13.854984, -4.882813
304053, 0.302002, 0.864990, -0.489990, -14.404301, -20.202637, -7.263186
304073, 0.239746, 0.880615, -0.467773, -17.089844, -19.714355, -11.962894
304093, 0.199463, 0.906128, -0.369263, -12.756351, -15.808109, -9.887695
304113, 0.203125, 0.915894, -0.320313, 1.892090, -14.953617, -7.812502
304133, 0.209839, 0.860107, -0.367310, 18.310547, -15.808109, -5.187988
304153, 0.218262, 0.851807, -0.596680, 6.713869, -23.498543, -4.089355
304173, 0.070435, 0.890503, -0.590820, -5.249023, -21.667480, -0.427246
304193, -0.012573, 0.919189, -0.489624, -5.615236, -10.925293, 16.601563
304213, 0.081787, 0.930786, -0.424927, 3.967286, 3.967286, 30.639656
304233, 0.243896, 0.796997, -0.484253, 5.432129, 14.465336, 31.616219
304253, 0.308350, 0.717529, -0.513672, -2.868653, 11.901859, 23.620613
304273, 0.296387, 0.726074, -0.496094, -12.146000, 6.408693, 17.272949
304293, 0.311035, 0.806030, -0.416260, -16.662598, 8.056641, 14.160160
304313, 0.346558, 0.875488, -0.396606, -12.512211, 11.840824, 11.535648
304333, 0.473022, 0.936035, -0.398438, -5.187988, -0.793457, -2.075195
304353, 0.427246, 0.876709, -0.419189, -0.122070, -15.502934, -15.441898
304373, 0.294922, 0.860718, -0.429565, 0.915528, -26.062019, -20.629883
304393, 0.182251, 0.844604, -0.453003, 1.892090, -24.414070, -19.409180
304413, 0.121216, 0.869019, -0.462036, 1.098633, -15.075687, -12.390141
304433, 0.165649, 0.857178, -0.495483, 0.122070, -8.239746, -5.981447
304453, 0.208862, 0.865234, -0.509521, -3.356935, -7.324221, -1.892090
304473, 0.201172, 0.865234, -0.490601, -6.530764, -9.643555, 0.122070
304493, 0.184570, 0.862915, -0.493652, -8.911133, -7.324221, 3.051759
304513, 0.182983, 0.876343, -0.444946, -9.094238, -0.366211, 7.995607
304533, 0.212524, 0.888428, -0.401733, -6.286623, 3.662110, 10.437012
304553, 0.285522, 0.883789, -0.413452, -2.624512, 6.164553, 8.300781
304573, 0.315063, 0.883911, -0.401978, 0.915528, 3.845216, 3.601075
304593, 0.303345, 0.869019, -0.449097, 2.990724, -3.967286, -0.549316
304613, 0.230103, 0.859253, -0.490112, 0.610352, -5.981447, -0.976563
304633, 0.197266, 0.859253, -0.489868, -2.929688, -3.845216, 0.915528
304653, 0.212280, 0.865967, -0.462158, -5.371094, 2.807618, 3.723145
304673, 0.279175, 0.873169, -0.432739, -5.187988, 2.990724, 3.173829
304693, 0.289307, 0.877808, -0.411011, -3.173829, -1.647950, 0.549316
304713, 0.291626, 0.860718, -0.463745, -1.953125, -8.483887, -3.967286
304733, 0.182129, 0.877441, -0.444214, -2.929688, -7.873537, -2.868653
304753, 0.202759, 0.872803, -0.437500, -2.868653, 0.183106, 0.732422
304773, 0.225586, 0.879883, -0.415039, -1.831055, 3.601075, 1.586915
304793, 0.273804, 0.881226, -0.410156, 0.793457, 2.380371, 1.953125
304813, 0.299683, 0.881226, -0.417725, 2.990724, -1.831055, -1.770020
304833, 0.251221, 0.866821, -0.453491, 3.417970, -4.760742, -3.662110
304853, 0.204468, 0.868042, -0.460938, 1.708985, -3.356935, -1.892090
304873, 0.202881, 0.867432, -0.461792, 0.061035, 0.427246, 0.854492
304893, 0.238525, 0.872437, -0.444702, -1.464844, 3.356935, 3.112794
304913, 0.262695, 0.875854, -0.431030, -0.976563, 2.746582, 2.746582
304933, 0.272217, 0.873901, -0.428833, -0.244141, 2.075195, 1.037598
304953, 0.270508, 0.877686, -0.423218, 1.159668, 0.732422, -0.671387
304973, 0.263672, 0.876831, -0.423950, 2.380371, -0.427246, -1.831055
304993, 0.259155, 0.872925, -0.434448, 3.479005, -0.976563, -2.685547
305013, 0.243652, 0.870239, -0.438843, 3.479005, -2.197266, -2.990724
305033, 0.223877, 0.871582, -0.445313, 3.784181, -1.464844, -1.770020
305053, 0.225708, 0.868408, -0.447754, 3.417970, -0.244141, -0.305176
305073, 0.226074, 0.868164, -0.456299, 2.624512, 0.122070, 1.464844
305093, 0.225586, 0.868286, -0.452759, 1.770020, 1.831055, 3.540040
305113, 0.245605, 0.868652, -0.441895, 1.770020, 3.417970, 4.577637
305133, 0.267944, 0.867432, -0.446045, 1.647950, 2.502441, 3.906251
305153, 0.275635, 0.872925, -0.429810, 2.685547, 0.610352, 2.929688
305173, 0.274048, 0.867554, -0.451904, 3.295899, -0.488281, 1.159668
305193, 0.249146, 0.861938, -0.454468, 2.563477, -0.549316, 0.915528
305213, 0.251343, 0.864136, -0.456177, 1.892090, 0.000000, 1.586915
305233, 0.260254, 0.861816, -0.459717, 1.220703, 0.427246, 1.159668
305253, 0.274780, 0.861450, -0.455688, 0.122070, -0.549316, 0.793457
305273, 0.266724, 0.860474, -0.470703, -0.915528, -2.746582, -1.098633
305293, 0.236694, 0.861938, -0.455688, -2.014160, -1.525879, -0.793457
305313, 0.239014, 0.864380, -0.450317, -2.685547, 2.014160, 0.732422
305333, 0.294678, 0.869629, -0.431763, -2.075195, 2.075195, -0.122070
305353, 0.306519, 0.868164, -0.438354, -1.037598, -2.563477, -3.540040
305373, 0.281738, 0.865356, -0.453979, -0.915528, -5.615236, -5.737307
305393, 0.254517, 0.855225, -0.488892, -3.356935, -8.850098, -6.286623
305413, 0.216309, 0.859497, -0.479858, -6.774904, -9.643555, -4.211426
305433, 0.224976, 0.854248, -0.500854, -10.681152, -6.103518, -1.892090
305453, 0.256470, 0.858398, -0.498901, -15.747074, -1.037598, -2.868653
305473, 0.302124, 0.854248, -0.497803, -25.939949, -2.319336, -7.385256
305493, 0.204102, 0.885254, -0.413330, -27.832039, -1.342773, -8.361816
305513, 0.097656, 0.946777, -0.149292, -1.525879, 2.380371, -5.004883
305533, 0.131836, 0.896851, -0.367554, 23.071297, 11.535648, -1.464844
305553, 0.187744, 0.853394, -0.569092, 19.531250, 20.263672, -5.676271
305573, 0.203735, 0.881104, -0.513794, 7.812502, 14.648441, -5.981447
305593, 0.156738, 0.910278, -0.430908, 7.812502, 11.108402, -8.361816
305613, 0.089233, 0.911499, -0.419678, 9.826660, 24.230965, -10.742188
305633, 0.102783, 0.914185, -0.414307, 11.779789, 38.085938, -10.681152
305653, 0.164551, 0.894409, -0.406128, 12.207035, 43.640137, -10.559082
305673, 0.225586, 0.888428, -0.382324, 8.972168, 37.658691, -6.958010
305693, 0.265869, 0.939819, -0.370117, 9.704590, 32.775879, -6.835939
305713, 0.299072, 0.922974, -0.370361, 10.070801, 31.005867, -13.183598
305733, 0.271973, 0.899658, -0.367554, 8.422852, 28.198250, -17.822266
305753, 0.255005, 0.880737, -0.348511, 6.164553, 26.977547, -13.061527
305773, 0.212769, 0.904419, -0.361816, 3.601075, 27.771004, -12.207035
305793, 0.258057, 0.942505, -0.303223, 6.530764, 26.550301, -8.300781
305813, 0.293945, 0.927856, -0.331665, 13.854984, 26.977547, -16.235352
305833, 0.284302, 0.910645, -0.372192, 14.526371, 27.648933, -22.766121
305853, 0.342285, 0.900391, -0.426147, 12.756351, 12.390141, -32.226563
305873, 0.205811, 0.904053, -0.407715, 8.789063, 6.835939, -32.897949
305893, 0.166748, 0.879761, -0.406128, 6.103518, 13.122562, -27.526863
305913, 0.188354, 0.902344, -0.405518, 3.234864, 21.667480, -15.930180
305933, 0.265625, 0.910889, -0.398804, -0.183106, 25.573738, -20.629883
305953, 0.289551, 0.901855, -0.354858, 2.075195, 27.465828, -26.672371
305973, 0.339722, 0.892578, -0.389771, 1.098633, 24.475105, -29.724129
305993, 0.260742, 0.896484, -0.382446, -0.488281, 21.240234, -32.714844
306013, 0.308960, 0.887451, -0.441162, -5.371094, 15.258793, -32.958984
306033, 0.334961, 0.879395, -0.331909, -9.643555, 4.943848, -35.217285
306053, 0.336548, 0.877319, -0.357422, -4.272461, -1.708985, -38.879395
306073, 0.241699, 0.915039, -0.406982, -3.662110, -1.220703, -40.344238
306093, 0.211060, 0.872314, -0.461060, -8.361816, -0.244141, -34.912109
306113, 0.243896, 0.879272, -0.453491, -15.747074, -7.385256, -24.780281
306133, 0.301270, 0.859497, -0.434937, -20.141602, -15.075687, -20.690918
306153, 0.315063, 0.893555, -0.449219, -23.132332, -27.771004, -20.324707
306173, 0.248535, 0.879150, -0.439941, -25.024422, -35.217285, -15.808109
306193, 0.187744, 0.851807, -0.432495, -24.841316, -38.330078, -8.178711
306213, 0.142822, 0.856812, -0.435913, -25.207527, -34.606934, 3.356935
306233, 0.138672, 0.908569, -0.371582, -19.531250, -34.545898, 28.259285
306253, 0.197021, 0.927856, -0.390503, -12.023930, -31.250008, 27.648933
306273, 0.219238, 0.906494, -0.457520, -10.864258, -29.846199, 16.906738
306293, 0.239136, 0.903320, -0.446899, -12.023930, -35.644531, 9.704590
306313, 0.191406, 0.913696, -0.393555, -4.943848, -49.987808, 7.629396
306333, 0.014526, 0.900146, -0.439819, -1.525879, -41.748047, 11.962894
306353, -0.035156, 0.897095, -0.463013, -3.845216, -20.019531, 22.521980
306373, 0.037964, 0.893311, -0.414673, -0.122070, -7.385256, 31.921394
306393, 0.122803, 0.909180, -0.452881, 1.037598, -8.666992, 28.991707
306413, 0.079590, 0.912964, -0.472534, -10.009766, -1.586915, 8.361816
306433, 0.030762, 0.940918, -0.383667, -6.591799, -0.671387, 9.155273
306453, 0.024658, 0.913696, -0.410034, -1.403809, 0.610352, 13.732914
306473, -0.014648, 0.920654, -0.421265, -3.906251, 6.774904, 16.113281
306493, -0.009277, 0.932861, -0.397095, -8.361816, 16.479492, 13.427738
306513, 0.018188, 0.968872, -0.344482, -5.981447, 22.460945, 9.948730
306533, 0.065918, 0.940674, -0.406860, -10.620117, 23.742683, 5.310059
306553, 0.022827, 0.994873, -0.212646, -2.624512, 19.104004, 9.216309
306573, 0.017090, 0.969116, -0.259155, 7.141115, 21.118164, 13.732914
306593, 0.021362, 0.965088, -0.293579, 7.141115, 30.212410, 16.174316
306613, 0.111572, 0.996826, -0.180786, 18.432617, 24.108894, 16.967773
306633, 0.144531, 0.979736, -0.231201, 27.954109, 22.094727, 9.765625
306653, 0.150757, 0.955688, -0.264282, 31.616219, 21.240234, 5.126953
306673, 0.140503, 0.920410, -0.249756, 30.334480, 18.127441, 6.896975
306693, 0.186035, 0.941162, -0.259888, 25.451668, 20.935059, 10.253906
306713, 0.217529, 0.916382, -0.282471, 13.427738, 27.282722, 18.859863
