timestamp,ax,ay,az,gx,gy,gz
2389671, 0.155029, 0.839233, -0.616455, -6.835939, -2.990724, 17.333984
2389691, 0.259521, 0.815918, -0.623901, -4.577637, -1.770020, 4.272461
2389711, 0.220581, 0.802612, -0.632935, -5.249023, -0.488281, -9.887695
2389731, 0.195801, 0.797363, -0.641479, -6.713869, 1.464844, -21.240234
2389751, 0.121216, 0.792236, -0.639893, -10.070801, -6.774904, -27.465828
2389771, 0.037842, 0.806519, -0.627808, -10.559082, -8.666992, -26.428230
2389791, 0.034302, 0.808960, -0.619507, -12.146000, -2.136230, -26.550301
2389811, 0.066528, 0.818237, -0.576050, -11.352543, 7.385256, -30.944832
2389831, -0.061279, 0.844849, -0.537720, -2.014160, 16.540527, -27.465828
2389851, -0.149170, 0.831909, -0.527466, 4.577637, 41.381836, -16.418457
2389871, 0.188599, 0.837036, -0.523071, 9.338379, 35.278320, -18.127441
2389891, 0.175171, 0.820068, -0.554932, 16.967773, 21.057129, -28.076180
2389911, -0.005493, 0.794189, -0.675659, 14.709476, 2.319336, -28.442390
2389931, -0.156738, 0.787354, -0.688477, 8.605957, 0.671387, -15.319828
2389951, -0.130371, 0.804199, -0.624268, 5.065918, -3.234864, -1.342773
2389971, -0.015503, 0.815308, -0.580444, 7.568361, 7.385256, 6.347658
2389991, 0.182373, 0.804688, -0.613159, 8.972168, 0.488281, -0.854492
2390011, 0.064819, 0.796021, -0.646729, 7.812502, -8.544922, -8.117676
2390031, -0.079102, 0.792969, -0.652710, 4.638672, -2.319336, -0.915528
2390051, -0.004761, 0.796631, -0.639771, 3.051759, 0.000000, 3.356935
2390071, 0.041870, 0.801392, -0.616089, 2.807618, 0.427246, 2.258301
2390091, 0.037231, 0.800903, -0.615967, 3.906251, 0.671387, 0.061035
2390111, -0.011719, 0.799438, -0.619507, 4.455566, 2.136230, 0.122070
2390131, 0.028198, 0.790039, -0.651001, 3.784181, 4.089355, 1.220703
2390151, 0.049072, 0.789307, -0.651611, 1.953125, 1.953125, -0.305176
2390171, 0.016235, 0.795410, -0.631348, 0.915528, -0.305176, -0.915528
2390191, -0.003296, 0.795166, -0.634888, 0.915528, 1.098633, 0.854492
2390211, 0.048706, 0.795288, -0.628906, 1.342773, 1.892090, 0.427246
2390231, 0.033569, 0.794312, -0.634644, 1.403809, -0.305176, -0.854492
2390251, 0.006592, 0.794922, -0.631592, 1.464844, 0.122070, -0.549316
2390271, -0.001953, 0.795898, -0.628540, 1.647950, 2.624512, 0.976563
2390291, 0.026611, 0.793701, -0.635498, 1.464844, 3.112794, 1.708985
2390311, 0.022705, 0.791870, -0.637939, 1.098633, 2.990724, 1.647950
2390331, 0.041504, 0.793823, -0.630005, 0.976563, 4.455566, 1.403809
2390351, 0.065430, 0.791260, -0.639160, 0.854492, -0.061035, -0.061035
2390371, 0.011841, 0.792847, -0.632813, 0.366211, -1.647950, -0.976563
2390391, -0.001465, 0.793701, -0.636597, 0.610352, 1.403809, 1.281738
2390411, 0.053955, 0.793457, -0.629639, 0.488281, 0.732422, 1.464844
2390431, 0.034546, 0.795166, -0.622192, 0.854492, -0.854492, 0.000000
2390451, 0.005615, 0.793945, -0.633789, 1.647950, 2.197266, 1.220703
2390511, 0.022705, 0.793823, -0.632202, 0.976563, 1.525879, 0.244141
2390551, 0.031250, 0.790649, -0.640747, 0.061035, 0.061035, 0.671387
2390571, 0.066895, 0.792236, -0.635498, -0.061035, -0.244141, -0.732422
2390591, 0.003906, 0.793823, -0.627319, 0.427246, -1.647950, -1.464844
2390611, -0.009888, 0.796143, -0.624756, 0.976563, 0.671387, 1.220703
2390671, 0.036865, 0.789795, -0.643066, -0.305176, -1.281738, -2.868653
2390691, -0.015381, 0.796875, -0.619751, 0.000000, 0.305176, -0.732422
2390711, 0.023560, 0.791260, -0.631470, 0.915528, 1.831055, 2.075195
2390731, 0.060547, 0.785767, -0.641602, 0.488281, -0.244141, 1.464844
2390751, 0.068604, 0.798340, -0.647949, 0.061035, -2.929688, -0.732422
2390771, 0.023682, 0.789063, -0.622437, -0.305176, -2.502441, -1.770020
2390791, 0.013306, 0.792358, -0.631104, 1.159668, 1.281738, 1.647950
2390811, 0.057373, 0.792236, -0.636841, 1.403809, 0.244141, 1.892090
2390831, 0.064209, 0.788574, -0.650879, 0.000000, -2.868653, -0.671387
2390851, 0.005249, 0.793457, -0.624268, 0.000000, -0.793457, -0.671387
2390871, 0.015015, 0.793213, -0.634644, 0.488281, 1.953125, 1.342773
2390891, 0.052490, 0.794312, -0.622437, 0.915528, 0.610352, 1.159668
2390911, 0.069702, 0.788696, -0.647583, 0.976563, -0.366211, -0.305176
2390931, 0.037476, 0.788574, -0.645630, -0.305176, -2.929688, -2.075195
2390951, -0.006958, 0.794678, -0.628052, -0.183106, 0.915528, 0.122070
2390971, 0.054932, 0.793945, -0.633789, 2.258301, 4.882813, 1.708985
2390991, 0.077515, 0.790039, -0.640625, 1.525879, 1.525879, -1.220703
2391011, 0.020020, 0.797607, -0.638672, 1.098633, 4.760742, -2.258301
2391031, 0.044922, 0.818359, -0.607056, 3.662110, 14.648441, -3.540040
2391051, 0.130127, 0.801636, -0.636963, 6.591799, 15.808109, -8.605957
2391071, 0.216797, 0.796753, -0.725586, 3.967286, 16.723633, -18.066406
2391091, -0.034058, 0.991211, -0.521973, 14.343266, -3.784181, -5.187988
2391111, -0.107544, 0.829224, -0.400635, 74.035645, 10.070801, 43.273926
2391131, 0.159058, 0.535645, -0.794312, 61.889664, 26.855476, 40.466309
2391151, 0.203369, 0.685425, -0.690552, 60.913101, 22.399910, 26.550301
2391171, 0.016479, 0.532471, -0.852295, 33.081055, -11.108402, 10.742188
2391191, -0.098633, 0.594482, -0.785767, -8.850098, -9.948730, -7.873537
2391211, -0.095093, 0.641724, -0.756836, -29.296883, 0.061035, -6.958010
2391231, -0.018066, 0.795410, -0.668701, -24.230965, 14.160160, 8.300781
2391251, 0.059814, 0.744873, -0.645874, -15.380863, 29.113777, 21.240234
2391271, 0.116577, 0.813599, -0.676880, -13.000492, 37.475586, 18.310547
2391291, 0.185059, 0.912964, -0.636963, 4.882813, 23.376472, 12.084965
2391311, 0.151245, 0.753540, -0.649414, 5.371094, 18.798828, 7.812502
2391331, 0.212891, 0.729858, -0.730225, 5.371094, 19.287109, 5.065918
2391351, 0.077026, 0.759644, -0.629883, 7.385256, 20.385742, 2.197266
2391371, 0.099487, 0.744263, -0.646851, 10.925293, 29.541023, 4.211426
2391391, 0.114990, 0.728882, -0.686157, 14.648441, 38.085938, 0.976563
2391411, 0.141602, 0.724976, -0.732178, 15.563969, 39.794922, -7.934572
2391431, 0.222900, 0.736938, -0.750366, 8.789063, 31.982430, -16.662598
2391451, 0.259644, 0.742188, -0.676636, 3.662110, 20.080566, -15.869144
2391471, 0.245361, 0.734009, -0.647949, 3.173829, 9.216309, -8.972168
2391491, 0.290649, 0.758789, -0.735718, 0.244141, 2.258301, -14.465336
2391511, 0.184570, 0.772827, -0.742920, -11.230473, -11.657719, -25.695808
2391531, 0.123169, 0.736938, -0.719238, -19.165039, -21.301270, -22.521980
2391591, 0.182373, 0.745850, -0.675781, -23.437508, -39.306641, -16.235352
2391611, 0.123169, 0.776367, -0.694824, -31.066902, -50.781265, -15.197758
2391631, 0.029297, 0.771362, -0.688110, -31.250008, -47.180191, -6.469728
2391651, 0.129150, 0.769409, -0.649902, -36.193848, -51.330582, -0.549316
2391671, 0.136475, 0.771606, -0.596924, -33.935547, -58.288589, 1.037598
2391691, 0.095825, 0.780518, -0.648193, -36.254883, -62.622086, 2.563477
2391711, 0.033569, 0.764038, -0.606812, -32.348633, -61.401382, 4.943848
2391731, 0.071167, 0.788330, -0.623413, -24.108894, -62.194839, 5.737307
2391751, 0.011719, 0.809448, -0.608398, -22.155769, -60.180679, 8.056641
2391771, 0.020752, 0.786743, -0.575806, -15.625004, -63.903824, 4.394531
2391791, -0.023804, 0.804321, -0.628296, -14.892582, -62.683121, 13.000492
2391811, 0.039429, 0.800537, -0.613647, -13.183598, -66.162109, 16.723633
2391831, -0.039185, 0.827515, -0.529419, -7.019045, -58.410660, 15.869144
2391851, -0.121460, 0.852539, -0.485107, 2.502441, -42.541504, 15.563969
2391871, -0.045898, 0.810669, -0.663086, -1.220703, -36.499023, 4.699707
2391891, 0.001587, 0.803833, -0.674805, -9.216309, -49.865738, -0.122070
2391911, 0.006348, 0.822754, -0.596436, -14.221195, -67.077637, -1.586915
2391931, -0.167969, 0.859863, -0.514893, -9.460449, -46.325699, -8.544922
2391951, -0.194824, 0.859009, -0.493774, -7.690432, -18.371582, -8.605957
2391971, -0.157715, 0.845947, -0.492432, 0.000000, 0.427246, -6.042482
2391991, -0.101440, 0.851318, -0.525757, 6.652834, 3.601075, -4.577637
2392011, -0.102295, 0.867920, -0.527344, 7.385256, 8.483887, -7.385256
2392031, -0.054077, 0.847290, -0.560547, 4.882813, 11.657719, -10.192871
2392051, -0.069458, 0.815430, -0.581177, 6.042482, 5.981447, -11.169437
2392071, -0.150269, 0.848755, -0.493774, 14.343266, -0.488281, -7.629396
2392091, -0.063110, 0.826294, -0.697876, 9.399414, -5.493164, -2.502441
2392111, -0.224365, 0.788940, -0.559814, 4.821777, -16.479492, 7.141115
2392131, -0.189209, 0.765015, -0.557129, 23.193367, -3.540040, 18.127441
2392151, -0.181274, 0.837646, -0.464966, 38.391113, 20.812988, 13.610844
2392171, 0.036499, 0.832397, -0.584839, 25.756844, 39.367676, -3.051759
2392191, -0.132080, 0.795532, -0.595093, 30.944832, 52.124039, -12.634281
2392211, -0.145752, 0.782471, -0.634155, 26.428230, 71.594238, -10.498047
2392231, -0.154663, 0.723389, -0.670288, 37.109375, 59.631363, -9.155273
2392251, -0.151733, 0.817139, -0.653687, 34.729004, 77.697754, 2.685547
2392271, -0.060059, 0.867432, -0.517700, 30.639656, 84.594727, 4.882813
2392291, 0.116821, 0.792358, -0.654419, 26.977547, 86.547852, -0.061035
2392311, 0.081543, 0.741211, -0.722168, 20.446777, 64.941406, -14.404301
2392331, -0.031006, 0.773315, -0.650146, 19.653320, 54.687515, -14.892582
2392351, 0.135620, 0.793457, -0.659180, 16.113281, 52.612320, -6.591799
2392371, 0.138550, 0.768799, -0.738770, 10.864258, 29.113777, -23.376472
2392391, 0.041382, 0.752075, -0.695068, 5.859377, 15.808109, -35.522461
2392411, 0.104004, 0.740845, -0.735596, 1.220703, 3.173829, -29.785164
2392431, 0.096558, 0.752563, -0.649902, 2.197266, 1.220703, -8.178711
2392451, 0.083374, 0.733032, -0.699341, 2.380371, -3.479005, -2.563477
2392471, -0.003540, 0.738892, -0.701660, 1.647950, -3.601075, 2.014160
2392491, 0.050171, 0.741943, -0.707886, 0.000000, -0.793457, 3.967286
2392511, -0.017212, 0.756470, -0.659546, 1.220703, 5.249023, 3.906251
2392531, 0.126343, 0.738647, -0.714355, 2.319336, 5.249023, 3.112794
2392551, 0.015625, 0.740845, -0.709717, 0.122070, 1.586915, 0.915528
2392571, 0.038452, 0.748047, -0.661011, 0.488281, -0.732422, 3.784181
2392591, 0.020508, 0.739014, -0.709351, 0.305176, 0.366211, 4.760742
2392611, 0.012451, 0.749268, -0.669189, 0.122070, 8.728027, 4.821777
2392631, 0.065063, 0.744263, -0.691040, 1.647950, 15.930180, 4.760742
2392651, 0.060181, 0.741699, -0.692871, 0.976563, 9.643555, 4.333496
2392671, 0.093140, 0.745605, -0.682983, 1.708985, 7.446291, 4.272461
2392691, -0.031494, 0.744995, -0.687988, 2.502441, 11.108402, 4.333496
2392711, -0.010498, 0.744263, -0.677246, 3.967286, 29.602058, 9.155273
2392731, 0.142578, 0.733154, -0.701782, 3.173829, 33.081055, 7.934572
2392751, 0.181274, 0.734131, -0.704956, 1.708985, 15.869144, 5.004883
2392771, 0.079102, 0.733765, -0.691895, 0.732422, 6.958010, 4.760742
