timestamp,ax,ay,az,gx,gy,gz
354453, -0.111328, 0.830566, -0.575684, -0.183106, 0.427246, -0.183106
354473, -0.118164, 0.831421, -0.564575, 1.403809, -1.159668, -0.061035
354493, -0.121704, 0.832275, -0.583984, 0.915528, -0.427246, 0.732422
354513, -0.112183, 0.812866, -0.576904, 0.976563, -1.953125, -0.122070
354533, -0.127563, 0.825439, -0.585693, -1.586915, -0.976563, -0.427246
354553, -0.122803, 0.834595, -0.564087, 0.000000, -0.732422, -0.061035
354573, -0.119263, 0.824829, -0.579102, 0.122070, 0.183106, 0.976563
354593, -0.112671, 0.835083, -0.571289, 0.427246, -0.061035, 0.366211
354613, -0.117554, 0.829102, -0.582275, 0.366211, -0.427246, 0.366211
354633, -0.110596, 0.834106, -0.572754, 0.549316, -1.037598, 0.427246
354653, -0.108154, 0.830811, -0.577881, 0.244141, -0.793457, -0.671387
354673, -0.122803, 0.823242, -0.576538, -0.183106, -1.586915, -1.220703
354693, -0.131226, 0.826660, -0.569580, 0.427246, -1.037598, 0.488281
354713, -0.122559, 0.824463, -0.577881, 0.732422, -0.183106, 1.159668
354733, -0.115234, 0.825562, -0.579956, -0.610352, 0.244141, 0.305176
354753, -0.112915, 0.838379, -0.573486, -0.732422, 0.000000, 0.244141
354773, -0.111084, 0.838013, -0.570923, 0.610352, -0.122070, 0.183106
354793, -0.114014, 0.825928, -0.578003, 0.793457, -0.427246, 0.427246
354813, -0.111450, 0.829468, -0.576050, 0.671387, -0.793457, -0.305176
354833, -0.123535, 0.830688, -0.575806, 0.488281, -0.854492, -0.366211
354853, -0.116699, 0.823242, -0.578491, 0.976563, -1.037598, 0.427246
354873, -0.119995, 0.833862, -0.576172, -0.183106, -0.244141, 0.244141
354893, -0.112305, 0.830933, -0.574829, 0.244141, -0.183106, -0.183106
354913, -0.114868, 0.824341, -0.577637, 0.000000, -0.244141, 0.366211
354933, -0.117432, 0.830322, -0.572754, 0.305176, -0.610352, 0.305176
354953, -0.118774, 0.829468, -0.574707, 0.976563, -0.793457, 1.342773
354973, -0.115234, 0.827515, -0.577881, 0.305176, -1.098633, 0.793457
354993, -0.115723, 0.831177, -0.573608, 0.183106, -0.366211, 0.671387
355013, -0.112183, 0.831299, -0.575928, 0.000000, 0.000000, -0.183106
355033, -0.113159, 0.826538, -0.579468, -0.610352, -0.305176, -0.244141
355053, -0.116943, 0.832886, -0.575562, -0.305176, -0.122070, 0.305176
355073, -0.108765, 0.833740, -0.570557, 0.549316, -0.610352, 0.549316
355093, -0.109253, 0.829956, -0.576172, 0.488281, -1.342773, 0.366211
355113, -0.117310, 0.833618, -0.573486, 0.610352, -2.014160, 0.488281
355133, -0.120117, 0.823608, -0.572510, 0.854492, -1.953125, 0.610352
355153, -0.122192, 0.825195, -0.574341, 0.122070, -0.671387, 0.732422
355173, -0.115601, 0.827393, -0.574707, 0.366211, -0.244141, 1.342773
355193, -0.111816, 0.839355, -0.574829, 0.305176, -0.183106, 0.915528
355213, -0.112549, 0.834961, -0.566772, 1.098633, -0.183106, 0.854492
355233, -0.101196, 0.833130, -0.579956, 2.075195, -0.427246, 1.647950
355253, -0.110962, 0.828491, -0.581177, 1.586915, -0.610352, 0.610352
355273, -0.124146, 0.821777, -0.572876, 1.220703, -0.244141, 0.732422
355293, -0.115234, 0.827271, -0.571533, 2.075195, 0.305176, 2.441406
355313, -0.109253, 0.825562, -0.582153, 1.586915, 1.037598, 2.380371
355333, -0.108032, 0.834839, -0.579102, 0.549316, 0.793457, 0.793457
355353, -0.105591, 0.824097, -0.577881, 0.732422, -0.244141, 0.549316
355373, -0.107178, 0.828979, -0.577271, 0.366211, -0.488281, 1.220703
355393, -0.106567, 0.829712, -0.578247, 0.488281, 0.244141, 1.037598
355413, -0.105103, 0.833130, -0.581299, -0.183106, -0.915528, -0.671387
355433, -0.114380, 0.823242, -0.569214, 0.244141, -0.793457, 0.366211
355453, -0.070801, 0.804932, -0.548462, 1.098633, -0.183106, 0.183106
355473, -0.201660, 0.836304, -0.681763, -2.441406, -1.708985, 2.929688
355493, -0.028076, 0.900635, -0.463867, -0.549316, 0.427246, -0.854492
355513, -0.124390, 0.716064, -0.621460, 3.479005, -1.647950, 0.427246
355533, -0.102539, 0.904785, -0.593994, -6.591799, 2.197266, 0.671387
355553, -0.107544, 0.835327, -0.534790, 3.845216, -2.624512, -2.014160
355573, -0.107300, 0.801758, -0.603149, -1.281738, 1.342773, 0.976563
355593, -0.103149, 0.855957, -0.563599, 0.122070, -1.037598, -0.793457
355613, -0.092407, 0.822388, -0.568115, 1.098633, 0.061035, 0.122070
355633, -0.111572, 0.830688, -0.582275, 0.549316, -1.403809, 0.122070
355653, -0.106934, 0.838745, -0.568726, 1.159668, -0.610352, -0.366211
355673, -0.105469, 0.825073, -0.584595, 0.366211, -0.183106, -0.488281
355693, -0.101196, 0.820679, -0.573853, 0.183106, -1.403809, -0.610352
355713, -0.112305, 0.829468, -0.579712, -0.244141, -1.342773, 0.061035
355733, -0.110962, 0.836792, -0.571289, 0.488281, -0.122070, 0.427246
355753, -0.102661, 0.830566, -0.578491, 0.671387, -0.183106, 0.610352
355773, -0.099731, 0.832275, -0.573608, 0.915528, -0.061035, 0.122070
355793, -0.104370, 0.828979, -0.576416, 0.488281, -0.610352, -0.061035
355813, -0.111450, 0.825928, -0.578125, 0.183106, -1.342773, 0.061035
355833, -0.109009, 0.832397, -0.572754, 0.183106, -0.793457, 0.366211
355853, -0.103760, 0.832031, -0.574097, 1.159668, -0.976563, 0.976563
355873, -0.100220, 0.834595, -0.573730, 1.464844, -0.976563, 0.976563
355893, -0.102417, 0.820923, -0.585815, 0.671387, -0.732422, -0.183106
355913, -0.108276, 0.830078, -0.576294, -0.610352, -0.488281, -0.244141
355933, -0.111328, 0.837769, -0.567505, 0.793457, -0.732422, 0.366211
355953, -0.106445, 0.828979, -0.572144, 1.892090, -0.183106, 1.220703
355973, -0.098145, 0.828735, -0.579956, 1.770020, -0.061035, 0.915528
355993, -0.100220, 0.823364, -0.578491, 1.586915, -0.061035, 0.305176
356013, -0.108154, 0.823242, -0.576050, 1.708985, 0.793457, 1.037598
356033, -0.109863, 0.826050, -0.578613, 1.403809, 1.525879, 0.488281
356053, -0.112915, 0.830078, -0.569458, 2.990724, 2.807618, 1.586915
356073, -0.098999, 0.839966, -0.565552, 5.737307, 2.319336, 3.601075
356093, -0.081543, 0.818726, -0.601074, 4.577637, 2.441406, 1.403809
356113, -0.089966, 0.814331, -0.593872, 0.915528, 2.197266, -0.305176
356133, -0.102173, 0.818726, -0.584961, 0.183106, 1.403809, -0.366211
356153, -0.109131, 0.825928, -0.578003, 0.671387, 1.098633, 0.610352
356173, -0.090576, 0.840942, -0.578125, 3.051759, 1.464844, 1.647950
356193, -0.085693, 0.818359, -0.597900, 1.342773, -0.915528, 0.000000
356213, -0.096436, 0.818726, -0.587036, -0.549316, -0.305176, 0.122070
356233, -0.089966, 0.832275, -0.588989, -0.793457, -0.549316, -0.427246
356253, -0.103882, 0.834229, -0.575562, -0.305176, -0.488281, -1.037598
356273, -0.093262, 0.825439, -0.586304, 0.366211, -0.061035, 0.000000
356293, -0.098755, 0.827759, -0.584229, -0.427246, -0.854492, 0.244141
356313, -0.092896, 0.836426, -0.575684, 1.220703, -0.244141, 0.915528
356333, -0.087769, 0.825562, -0.592407, 0.854492, -0.732422, -0.183106
356353, -0.100464, 0.827881, -0.578003, 0.793457, -0.427246, -0.427246
356373, -0.091553, 0.827271, -0.586060, 0.610352, 0.122070, -1.525879
356393, -0.096680, 0.820557, -0.588623, 0.244141, -1.464844, -1.586915
356413, -0.102417, 0.826172, -0.579834, -0.366211, -1.647950, -1.159668
356433, -0.097290, 0.828003, -0.577637, 1.525879, -0.793457, 0.000000
356453, -0.090454, 0.828125, -0.587524, 1.708985, 0.366211, 0.061035
356473, -0.092285, 0.831177, -0.581177, 2.563477, 0.000000, 0.427246
356493, -0.091309, 0.835205, -0.580933, 3.784181, 0.122070, 1.098633
356513, -0.083008, 0.817139, -0.596680, 3.356935, -2.014160, -0.854492
356533, -0.106567, 0.809448, -0.596680, -0.122070, -2.807618, -2.014160
356553, -0.116211, 0.824951, -0.580200, 0.061035, -0.183106, 0.427246
356573, -0.092896, 0.820679, -0.579224, -0.854492, 1.953125, 4.882813
356593, -0.052124, 0.836426, -0.582520, 1.525879, -1.281738, 1.525879
356613, -0.076538, 0.841919, -0.588379, 1.342773, -2.929688, 1.037598
356633, -0.095581, 0.819458, -0.594360, 0.732422, -7.690432, 0.793457
356653, -0.100952, 0.813110, -0.586426, -1.037598, -7.507326, -1.464844
356673, -0.128784, 0.798584, -0.588379, -1.525879, -5.249023, -0.305176
356693, -0.119995, 0.788086, -0.584106, -3.173829, -2.563477, 1.708985
356713, -0.068604, 0.794800, -0.588867, -5.676271, -0.183106, -0.305176
356733, -0.094360, 0.846802, -0.586914, -6.713869, -7.080080, -2.075195
356753, -0.135376, 0.844727, -0.570190, 0.061035, -2.624512, -1.098633
356773, -0.052490, 0.859741, -0.567505, 2.807618, 0.915528, 2.075195
356793, -0.020386, 0.879761, -0.575928, 8.056641, -0.183106, 4.150391
356813, -0.041260, 0.877441, -0.600098, 9.033203, -4.455566, 0.000000
356833, -0.086548, 0.846558, -0.563110, 9.216309, -11.047363, -5.554201
356853, -0.121338, 0.818359, -0.576294, 8.178711, -13.305668, -8.056641
356873, -0.188599, 0.784546, -0.594482, 4.333496, -13.366703, -10.986328
356893, -0.235229, 0.749268, -0.591309, 1.037598, -4.455566, -8.666992
356913, -0.178345, 0.746094, -0.600708, -2.990724, 8.056641, -4.882813
356933, -0.085693, 0.821289, -0.603638, -5.004883, 12.756351, -3.662110
356953, -0.075073, 0.844482, -0.590698, -3.662110, 9.521484, -4.760742
356973, -0.077637, 0.823120, -0.599487, -4.455566, 4.089355, -6.469728
356993, -0.096558, 0.824707, -0.579468, -6.347658, 1.159668, -8.605957
357013, -0.123657, 0.821289, -0.574951, -5.187988, -0.549316, -7.080080
357033, -0.138672, 0.830078, -0.577393, -3.967286, -0.305176, -4.577637
357053, -0.155029, 0.831665, -0.571533, -2.319336, -1.281738, -2.624512
357073, -0.166260, 0.822266, -0.569702, -0.366211, -1.220703, 1.770020
357093, -0.151245, 0.811157, -0.576782, -0.122070, -0.854492, 4.882813
357113, -0.150269, 0.830078, -0.579590, -0.610352, 2.868653, 8.178711
357133, -0.108398, 0.839233, -0.568115, 2.502441, 4.394531, 10.681152
357153, -0.070435, 0.830688, -0.588501, 3.051759, 2.502441, 9.216309
357173, -0.086548, 0.834961, -0.579346, 2.563477, 0.488281, 7.080080
357193, -0.098389, 0.834839, -0.570679, 4.516602, 1.037598, 7.324221
357213, -0.088867, 0.810547, -0.603760, 1.892090, -1.342773, 4.455566
357233, -0.106445, 0.807739, -0.594238, -1.525879, -1.159668, 2.929688
357253, -0.107178, 0.811157, -0.586792, -0.915528, 0.488281, 3.479005
357273, -0.115234, 0.822144, -0.588867, -1.708985, 2.807618, 3.295899
357293, -0.111084, 0.853027, -0.569458, -0.549316, 4.577637, 4.028320
357313, -0.063354, 0.826172, -0.590210, -0.976563, 3.112794, 2.136230
357333, -0.080322, 0.837280, -0.574585, -2.014160, 1.647950, 0.488281
357353, -0.090210, 0.848145, -0.566406, 0.122070, -0.183106, 0.305176
357373, -0.099121, 0.835938, -0.569946, 0.793457, -1.098633, 0.610352
357393, -0.105347, 0.837280, -0.567749, 2.197266, -1.770020, 2.807618
357413, -0.074951, 0.833374, -0.589600, 2.075195, 0.671387, 2.624512
357433, -0.090210, 0.804932, -0.579834, 0.549316, 0.305176, 0.671387
357453, -0.091064, 0.843872, -0.583618, 0.061035, 1.831055, 1.281738
357473, -0.081055, 0.826782, -0.576172, 1.220703, 0.549316, 1.647950
357493, -0.077881, 0.828369, -0.593140, 1.159668, -1.586915, 1.403809
357513, -0.079956, 0.825317, -0.576782, 2.075195, -2.807618, 1.953125
357533, -0.074341, 0.818848, -0.586060, 1.037598, -2.929688, 1.647950
357553, -0.103516, 0.831543, -0.573608, 0.610352, -2.868653, 1.220703
357573, -0.093750, 0.843018, -0.568970, 3.356935, -0.732422, 2.136230
357593, -0.080566, 0.818848, -0.585571, 4.211426, -0.854492, 2.441406
357613, -0.078979, 0.829102, -0.577881, 5.187988, -0.793457, 4.272461
357633, -0.072510, 0.831299, -0.580566, 6.896975, -0.488281, 4.516602
357653, -0.078613, 0.807983, -0.587158, 7.080080, 0.366211, 2.502441
357673, -0.101440, 0.792114, -0.588379, 7.690432, 1.953125, 3.295899
357693, -0.064575, 0.794922, -0.595093, 7.263186, 5.126953, 10.742188
357713, 0.027222, 0.832520, -0.600952, 13.061527, 4.211426, 16.601563
357733, -0.017334, 0.790649, -0.641602, 12.329105, -7.446291, 16.174316
357753, -0.118042, 0.767944, -0.604126, 7.568361, -7.446291, 11.291508
357773, -0.183838, 0.836182, -0.542969, 13.305668, 0.732422, 19.470215
357793, -0.067993, 0.772339, -0.621460, 19.042969, 8.789063, 26.245125
357813, 0.033081, 0.759766, -0.685913, 14.587406, 7.995607, 19.714355
357833, 0.001465, 0.827881, -0.642578, 8.056641, -0.671387, 8.911133
357853, -0.105347, 0.821899, -0.601563, 5.432129, 2.868653, 6.530764
357873, -0.089478, 0.841064, -0.602539, 5.432129, 10.803223, 9.704590
357893, -0.093872, 0.815063, -0.629395, 4.577637, 12.695316, 12.146000
357913, -0.134033, 0.786011, -0.677002, 1.892090, 33.569336, 11.962894
357933, -0.075806, 0.819092, -0.519653, 4.028320, 61.218277, 10.314941
357953, 0.032959, 0.801270, -0.586914, 19.836426, 78.735352, 1.220703
357973, 0.067139, 0.798828, -0.629028, 16.906738, 80.627441, -3.417970
357993, 0.082886, 0.817627, -0.628418, 17.700195, 74.768066, -6.225588
358013, 0.144775, 0.812256, -0.601440, 16.418457, 61.340347, -10.009766
358033, -0.004272, 0.788086, -0.680542, 20.568848, 54.138199, -23.742683
358053, 0.013184, 0.792969, -0.666626, 15.319828, 55.297867, -24.292000
358073, 0.044678, 0.805664, -0.667847, 7.080080, 46.447769, -30.334480
358093, 0.234741, 0.801636, -0.669189, 1.953125, 22.094727, -37.109375
358113, 0.160400, 0.790894, -0.631592, -2.197266, -1.586915, -34.973145
358133, 0.135132, 0.790283, -0.687012, -5.737307, -21.667480, -36.987305
358153, 0.100464, 0.803223, -0.616089, -7.751467, -20.812988, -36.193848
358173, 0.033081, 0.780640, -0.665405, -14.831547, -33.630371, -39.916992
358193, -0.055176, 0.792480, -0.606079, -9.826660, -19.165039, -21.179199
358213, 0.036499, 0.796753, -0.654175, -12.695316, -20.324707, -19.287109
358233, 0.070557, 0.807007, -0.675903, -18.737793, -27.221687, -29.174812
358253, -0.032349, 0.806030, -0.602173, -26.855476, -41.015625, -33.874512
358273, -0.026245, 0.807007, -0.637573, -27.587898, -42.846680, -23.254402
358293, -0.040283, 0.791138, -0.662842, -29.968269, -44.555679, -17.089844
358313, -0.008789, 0.820068, -0.643311, -35.827637, -50.537125, -18.981934
358333, 0.018799, 0.814697, -0.632446, -47.973648, -65.002441, -23.559578
358353, -0.079468, 0.808594, -0.566528, -51.391617, -78.613281, -20.446777
358373, -0.173096, 0.848267, -0.591064, -45.715347, -71.289063, -11.474613
358393, -0.232056, 0.847412, -0.479248, -48.400894, -73.852539, -0.732422
358413, -0.233154, 0.873047, -0.465210, -42.663574, -62.316910, 8.544922
358433, -0.140625, 0.858887, -0.540771, -40.283203, -60.546890, 14.038090
358453, -0.065186, 0.912109, -0.550415, -50.537125, -104.736359, 23.254402
358473, -0.036377, 0.911255, -0.450928, -52.551285, -139.831543, 27.343758
358493, -0.116333, 0.900757, -0.347656, -61.645523, -140.625000, 35.949707
358513, -0.288696, 0.896729, -0.169922, -44.494644, -117.614777, 26.794441
358533, -0.478027, 0.934814, -0.299072, -24.963387, -85.571289, 33.935547
358553, -0.242065, 0.973999, -0.249390, -12.146000, -73.547363, 40.893555
358573, -0.048828, 0.897095, -0.391479, -13.122562, -85.327148, 50.476089
358593, -0.172729, 0.973999, -0.296997, -4.943848, -77.941895, 44.250504
358613, -0.197388, 0.957275, -0.249390, 5.432129, -102.661163, 41.748047
358633, -0.186035, 0.929199, -0.301514, 8.666992, -46.813980, 31.066902
358653, -0.195679, 0.965820, -0.227295, 15.563969, -42.236328, 28.869637
358673, -0.115967, 0.973511, -0.241821, 36.621094, -46.081558, 38.085938
358693, -0.047485, 0.927612, -0.400879, 39.306641, -45.043961, 35.217285
358713, -0.148926, 0.927612, -0.365723, 30.517586, -30.212410, 21.423340
358733, -0.194824, 0.925903, -0.363647, 28.015144, -31.677254, 19.104004
358753, -0.253540, 0.951660, -0.218140, 31.799324, -20.690918, 17.639160
358773, -0.236328, 0.916382, -0.351563, 40.405273, -8.178711, 18.920898
358793, -0.255371, 0.946045, -0.314697, 26.245125, 13.916019, 12.817387
358813, -0.116821, 0.920044, -0.362915, 30.334480, 27.221687, 10.803223
358833, -0.103760, 0.932373, -0.281372, 33.386230, 27.099617, 4.638672
358853, -0.080566, 0.892334, -0.551514, 17.517090, 23.010262, 5.249023
358873, -0.029907, 0.937256, -0.390991, 10.009766, 18.615723, 0.122070
358893, -0.100220, 0.925903, -0.418579, 4.943848, 22.644051, -4.638672
358913, -0.129395, 0.930542, -0.326294, 21.484375, 33.264160, -6.042482
358933, -0.120483, 0.907837, -0.349731, 31.860359, 39.611816, -5.554201
358953, -0.113770, 0.898560, -0.531128, 33.203125, 38.757324, -2.197266
358973, -0.056396, 0.913208, -0.437256, 20.690918, 33.691406, -1.037598
358993, -0.053467, 0.887817, -0.547974, 9.521484, 33.081055, -2.563477
359013, -0.133667, 0.874634, -0.342773, 38.024902, 40.222168, -13.732914
359033, -0.278809, 0.855225, -0.398438, 67.565918, 81.359863, -6.835939
359053, -0.141602, 0.874390, -0.471436, 63.659683, 109.436066, 1.953125
359073, -0.002686, 0.875244, -0.742188, 35.278320, 121.215851, 0.793457
359093, 0.292480, 0.869019, -0.484131, 18.981934, 95.642120, -10.986328
359113, 0.055054, 0.817627, -0.575806, 25.329597, 79.406738, -22.521980
