timestamp,ax,ay,az,gx,gy,gz
2128746, 0.176025, 0.911011, -0.396851, 1.220703, -22.766121, -10.986328
2128766, 0.064087, 0.910522, -0.428223, -5.310059, -20.385742, 6.225588
2128786, 0.230225, 0.923218, -0.346436, -4.699707, -1.403809, 7.141115
2128806, 0.359497, 0.933594, -0.282349, 1.281738, -2.014160, -2.258301
2128826, 0.265625, 0.920776, -0.341309, 6.469728, -9.033203, -11.840824
2128846, 0.044067, 0.897339, -0.451416, 4.272461, -4.577637, -7.568361
2128866, 0.036377, 0.900391, -0.438721, -2.319336, 10.314941, 5.676271
2128886, 0.226196, 0.912598, -0.376465, -4.516602, 11.962894, 10.192871
2128906, 0.355835, 0.919312, -0.332153, -3.295899, 4.150391, 4.150391
2128926, 0.301270, 0.936768, -0.327637, 1.525879, -6.530764, -5.004883
2128946, 0.160400, 0.911987, -0.366089, 3.723145, -4.943848, -6.042482
2128966, 0.215820, 0.906860, -0.384033, 2.441406, 0.122070, -1.159668
2128986, 0.274292, 0.914795, -0.367310, 2.136230, -5.493164, -4.516602
2129006, 0.203369, 0.914063, -0.375732, 2.929688, -10.986328, -7.446291
2129026, 0.090576, 0.909180, -0.418091, 0.915528, -7.751467, -2.197266
2129046, 0.130005, 0.915283, -0.392090, -1.098633, 1.953125, 4.211426
2129066, 0.241821, 0.936401, -0.334961, 1.037598, 3.784181, 4.150391
2129086, 0.321655, 0.912720, -0.355835, 3.967286, -7.751467, -0.732422
2129106, 0.201172, 0.900757, -0.395752, 3.479005, -17.272949, -5.737307
2129126, 0.081787, 0.897583, -0.449585, -0.549316, -9.643555, -0.122070
2129146, 0.203735, 0.922974, -0.356567, -1.708985, 4.211426, 3.784181
2129166, 0.304443, 0.918457, -0.346313, 0.793457, 0.610352, -0.854492
2129186, 0.207520, 0.911499, -0.364258, 2.868653, -6.408693, -5.798342
2129206, 0.111450, 0.904785, -0.425049, 0.915528, -3.845216, -2.014160
2129226, 0.134399, 0.910156, -0.412109, -2.197266, 3.479005, 2.868653
2129246, 0.214722, 0.942993, -0.340454, -1.037598, 6.652834, 3.601075
2129266, 0.233154, 0.988403, -0.275391, 6.164553, 5.371094, 1.586915
2129286, 0.245972, 1.042358, -0.376343, 12.146000, 9.216309, 1.770020
2129306, 0.108398, 1.344849, -0.153076, 39.306641, -11.413578, 15.441898
2129326, 0.069702, 0.937134, -0.466675, 58.776871, -15.747074, 43.823242
2129346, 0.159424, 0.610229, -0.593872, 24.353035, 9.948730, 26.428230
2129366, 0.162720, 0.742554, -0.541992, 15.441898, 22.888191, 13.671879
2129386, 0.224365, 0.876831, -0.463257, 13.244633, 25.939949, 9.399414
2129406, 0.201660, 0.918579, -0.422852, 19.348145, 20.996094, 12.512211
2129426, 0.232300, 0.662598, -0.529663, 14.587406, 22.766121, 13.793949
2129446, 0.406006, 0.645264, -0.465698, -12.084965, 28.076180, 6.103518
2129466, 0.462524, 0.884888, -0.293945, -15.563969, 25.329597, 1.953125
2129486, 0.504517, 1.054810, -0.265503, -5.798342, 8.728027, -0.183106
2129506, 0.388062, 0.924072, -0.339478, 5.004883, -8.361816, -1.770020
2129526, 0.302612, 0.831909, -0.468506, 0.671387, -12.756351, -16.113281
2129566, 0.007935, 0.887695, -0.549927, 4.760742, -1.464844, -6.164553
2129586, 0.156860, 0.812622, -0.479370, -0.793457, 11.596684, 10.925293
2129606, 0.347534, 0.839111, -0.414795, -5.371094, 11.901859, 7.629396
2129626, 0.390015, 0.909546, -0.369507, -2.197266, 6.713869, 1.708985
2129646, 0.354248, 0.906006, -0.388916, -0.427246, -0.183106, -1.770020
2129666, 0.245605, 0.880005, -0.427979, 3.845216, -4.333496, -3.540040
2129686, 0.226196, 0.805054, -0.470825, -0.366211, 0.000000, -0.976563
2129706, 0.266235, 0.876587, -0.444824, -0.610352, 1.403809, -4.150391
2129726, 0.248169, 0.873535, -0.434204, -1.647950, 2.990724, -3.173829
2129746, 0.237671, 0.886597, -0.432129, -1.953125, 3.112794, -1.525879
2129766, 0.264038, 0.926147, -0.404053, 0.915528, 3.784181, 3.417970
2129786, 0.316772, 0.902222, -0.389282, 4.028320, 2.197266, 2.685547
2129806, 0.301025, 0.856934, -0.418335, 5.371094, -1.098633, 1.159668
2129826, 0.267334, 0.796021, -0.477661, 2.197266, -2.563477, -2.136230
2129846, 0.203003, 0.813599, -0.493408, -3.845216, 2.502441, -4.699707
2129866, 0.242065, 0.916748, -0.444336, -3.479005, 6.286623, -3.723145
2129886, 0.262695, 0.971313, -0.383057, 0.732422, 4.882813, 1.098633
2129906, 0.339722, 0.852661, -0.391357, 3.723145, 0.000000, 4.638672
2129926, 0.309692, 0.823120, -0.417603, 4.272461, -3.295899, -1.525879
2129946, 0.297974, 0.838501, -0.461670, 1.342773, -0.915528, -5.493164
2129966, 0.237427, 0.894531, -0.444702, 0.183106, -0.976563, -8.666992
2129986, 0.205200, 0.909790, -0.439453, 0.793457, -0.671387, -3.906251
2130006, 0.221436, 0.905640, -0.423340, 2.502441, -0.427246, 1.281738
2130026, 0.254883, 0.851929, -0.448486, 3.967286, 1.892090, 2.685547
2130046, 0.292114, 0.854980, -0.440063, 1.647950, 2.868653, 1.525879
2130066, 0.286133, 0.866455, -0.423462, 3.417970, 2.014160, -1.342773
2130086, 0.262817, 0.903076, -0.422485, 4.089355, 2.014160, -3.845216
2130106, 0.198486, 0.858521, -0.470581, 5.371094, 7.202150, -0.427246
2130126, 0.280029, 0.859985, -0.450562, 3.112794, 7.995607, 1.403809
2130146, 0.299072, 0.833130, -0.420898, 1.159668, 6.408693, 1.831055
2130166, 0.337280, 0.893921, -0.390747, 2.319336, 4.516602, -0.366211
2130186, 0.255005, 0.871338, -0.462524, 4.455566, 1.892090, -3.479005
2130206, 0.227661, 0.857300, -0.461792, 2.807618, 4.821777, -1.708985
2130226, 0.279419, 0.834473, -0.442871, 1.586915, 6.347658, 0.366211
2130246, 0.298950, 0.898071, -0.401001, 2.258301, 3.601075, 0.427246
2130266, 0.276978, 0.872437, -0.438232, 1.586915, 3.234864, 2.136230
2130286, 0.248291, 0.856812, -0.454346, 3.234864, 1.098633, -0.488281
2130306, 0.259766, 0.870850, -0.447632, 2.319336, 3.784181, 1.831055
2130326, 0.287231, 0.899048, -0.415649, 5.432129, 3.845216, 3.173829
2130346, 0.313477, 0.861328, -0.412109, 4.638672, 3.723145, 4.394531
2130366, 0.347412, 0.870239, -0.416870, 3.540040, -2.441406, -0.488281
2130386, 0.279663, 0.828491, -0.459106, 3.234864, -5.798342, -2.136230
2130406, 0.257935, 0.852417, -0.474121, 2.502441, -5.004883, -2.563477
2130426, 0.248291, 0.831787, -0.474976, 1.037598, -0.854492, -1.831055
2130446, 0.287842, 0.878540, -0.418823, -0.061035, 1.159668, -1.892090
2130466, 0.287109, 0.908691, -0.404907, 3.906251, -1.647950, -0.793457
2130486, 0.264526, 0.878784, -0.451294, 7.263186, -2.990724, 0.610352
2130506, 0.270874, 0.819092, -0.468018, 7.385256, -2.563477, 0.244141
2130526, 0.306152, 0.803833, -0.478149, 3.173829, -2.563477, -5.126953
2130566, 0.251831, 0.912598, -0.434326, 3.967286, -3.417970, -0.610352
2130586, 0.272217, 0.867432, -0.452393, 6.652834, -3.479005, 1.708985
2130626, 0.271240, 0.803345, -0.502075, 2.136230, -0.854492, -6.164553
2130646, 0.277832, 0.863403, -0.453491, 1.403809, -0.976563, -9.216309
2130666, 0.270508, 0.905029, -0.437622, 3.601075, -3.723145, -2.563477
2130686, 0.245483, 0.887085, -0.463135, 5.126953, -5.249023, 1.586915
2130706, 0.231079, 0.843506, -0.493286, 5.187988, -3.845216, 1.770020
2130726, 0.231323, 0.820435, -0.501953, 2.197266, -0.610352, -2.136230
2130746, 0.232666, 0.841064, -0.479614, -0.122070, 1.770020, -2.624512
2130766, 0.274902, 0.880493, -0.442871, 0.061035, 2.258301, 0.976563
2130786, 0.303101, 0.886475, -0.431641, 3.356935, -0.488281, 2.624512
2130806, 0.275269, 0.875366, -0.448120, 6.591799, -2.075195, 3.967286
2130826, 0.243164, 0.832886, -0.502686, 5.920412, -1.281738, 3.051759
2130846, 0.220093, 0.808960, -0.514282, 2.014160, 2.197266, 0.488281
2130866, 0.260132, 0.834106, -0.487061, -1.464844, 5.493164, 0.915528
2130886, 0.286011, 0.909424, -0.426025, 0.671387, 6.713869, 2.929688
2130906, 0.299561, 0.898315, -0.430786, 5.615236, 5.371094, 6.591799
2130926, 0.301270, 0.840454, -0.471191, 5.310059, 0.000000, 4.943848
2130946, 0.287598, 0.812988, -0.484619, 4.333496, -2.197266, -0.610352
2130966, 0.262329, 0.815552, -0.506592, 1.708985, 0.244141, -5.493164
2130986, 0.250366, 0.844360, -0.489868, -0.427246, 1.525879, -4.211426
2131006, 0.265747, 0.887207, -0.465088, -0.671387, 1.403809, -0.061035
2131026, 0.280884, 0.877197, -0.459229, 1.098633, -0.305176, 1.953125
2131046, 0.272583, 0.843140, -0.473755, 2.502441, -1.770020, 1.647950
2131066, 0.250977, 0.837891, -0.488037, 1.403809, -0.854492, 1.281738
2131086, 0.260132, 0.842529, -0.481934, 2.319336, 0.671387, 0.427246
2131106, 0.288330, 0.834229, -0.467285, 1.770020, 2.014160, -1.098633
2131126, 0.333862, 0.849365, -0.448242, 2.441406, 0.305176, -2.624512
2131146, 0.300537, 0.851929, -0.475586, 2.441406, -2.868653, -3.845216
2131166, 0.229980, 0.850220, -0.494995, 1.525879, -2.380371, -1.098633
2131186, 0.221802, 0.848267, -0.508301, 1.037598, -1.037598, 1.708985
2131206, 0.217773, 0.844116, -0.502319, -0.793457, 1.342773, 3.051759
2131226, 0.274292, 0.851196, -0.461670, -0.915528, 3.784181, 6.408693
2131246, 0.310791, 0.845459, -0.466553, 1.586915, 2.441406, 2.258301
2131266, 0.279297, 0.840210, -0.487549, 1.831055, -0.366211, 0.427246
2131286, 0.252563, 0.836426, -0.500854, 0.488281, -0.366211, 0.610352
2131306, 0.260132, 0.804443, -0.509644, -2.075195, 2.380371, 0.305176
2131326, 0.297363, 0.823730, -0.473633, -4.394531, 3.173829, 0.122070
2131346, 0.295532, 0.849854, -0.462036, -2.929688, 3.173829, -2.136230
2131366, 0.270264, 0.887329, -0.447266, -1.892090, 4.028320, -0.244141
2131386, 0.294312, 0.886841, -0.440430, 2.075195, 0.915528, 2.014160
2131546, 0.321045, 0.855347, -0.450317, 0.854492, 0.183106, 2.746582
2131566, 0.301270, 0.842773, -0.475586, 0.732422, -2.441406, 0.671387
2131586, 0.258301, 0.843628, -0.487183, 0.183106, -1.586915, 0.488281
2131606, 0.270386, 0.827271, -0.488159, -0.549316, 1.342773, 0.671387
2131626, 0.289063, 0.844116, -0.466309, -1.159668, 1.281738, -2.624512
2131646, 0.300537, 0.861938, -0.445435, -0.061035, 1.037598, -2.075195
2131666, 0.325439, 0.877197, -0.432861, 2.807618, -1.892090, -2.441406
2131686, 0.304321, 0.866821, -0.450684, 5.310059, -4.821777, -2.014160
2131706, 0.267700, 0.851074, -0.473511, 3.967286, -5.310059, 0.976563
2131726, 0.283936, 0.846924, -0.480957, 4.028320, -6.774904, 0.854492
2131746, 0.261230, 0.822998, -0.509888, 2.990724, -5.798342, -3.540040
2131766, 0.240234, 0.820557, -0.499390, 0.366211, -1.342773, -4.150391
2131786, 0.276855, 0.845337, -0.463989, 1.037598, 2.075195, -0.915528
2131806, 0.280640, 0.869629, -0.463013, 2.990724, -0.793457, 0.793457
2131826, 0.259033, 0.846436, -0.471680, 5.676271, 0.610352, 1.770020
2131846, 0.267578, 0.828247, -0.501709, 4.760742, 2.136230, 1.098633
2131866, 0.262451, 0.826782, -0.509399, 1.525879, 2.258301, -0.854492
2131886, 0.245361, 0.846558, -0.476563, 1.892090, 4.577637, 1.647950
2131906, 0.290405, 0.838257, -0.471436, 2.746582, 7.446291, 6.896975
2131926, 0.321777, 0.856445, -0.461304, 3.112794, 3.967286, 7.995607
2131946, 0.323486, 0.850342, -0.500732, 0.549316, 3.356935, 2.868653
2131966, 0.273193, 0.859985, -0.483276, 0.549316, -0.244141, 2.136230
2131986, 0.268433, 0.820801, -0.496948, 1.037598, 1.098633, 3.234864
2132006, 0.311279, 0.826538, -0.462036, -0.122070, 3.540040, 1.892090
2132026, 0.307007, 0.843384, -0.481323, -0.061035, 2.258301, 1.037598
2132046, 0.294678, 0.854736, -0.490356, 1.037598, -0.061035, -0.183106
2132066, 0.276611, 0.849365, -0.478516, 1.159668, 0.610352, 1.342773
2132086, 0.304565, 0.834961, -0.467407, 1.953125, 1.037598, 3.662110
2132106, 0.346802, 0.825073, -0.451538, 2.502441, -0.366211, 2.258301
2132126, 0.338623, 0.834839, -0.456055, 3.967286, -2.624512, -0.732422
2132146, 0.305298, 0.848389, -0.471680, 5.920412, -1.220703, -2.014160
2132166, 0.279785, 0.858887, -0.478638, 7.995607, -3.234864, -0.671387
2132186, 0.278076, 0.822144, -0.505005, 6.164553, -4.638672, 4.821777
2132206, 0.325073, 0.799561, -0.500488, 2.746582, -3.601075, 3.234864
2132226, 0.349487, 0.815308, -0.475220, -0.671387, -4.333496, -2.929688
2132246, 0.330688, 0.866821, -0.443237, 0.549316, -6.896975, -4.455566
2132266, 0.312500, 0.893799, -0.460815, 4.394531, -10.742188, -3.295899
2132286, 0.272583, 0.863770, -0.516235, 7.202150, -11.779789, -4.821777
2132306, 0.225098, 0.793213, -0.545288, 3.479005, -8.361816, -4.699707
2132326, 0.258179, 0.795532, -0.515381, 1.770020, -3.723145, -5.310059
2132346, 0.266846, 0.824707, -0.509399, 3.479005, -1.525879, -6.774904
2132366, 0.268799, 0.799927, -0.523926, 2.807618, -1.464844, -2.502441
2132386, 0.366821, 0.838501, -0.456909, 2.990724, -5.126953, -3.540040
2132406, 0.333740, 0.873413, -0.467163, 4.760742, -13.916019, -7.019045
2132426, 0.269043, 0.904053, -0.466553, 8.300781, -20.568848, -2.624512
2132446, 0.258301, 0.833130, -0.519409, 10.620117, -21.667480, 0.732422
2132466, 0.251099, 0.823608, -0.493774, 9.826660, -20.263672, 5.798342
2132486, 0.284302, 0.803467, -0.506958, 13.000492, -17.639160, 6.958010
2132506, 0.324829, 0.852173, -0.479858, 15.686039, -13.305668, 2.136230
2132526, 0.347412, 0.860474, -0.498657, 21.911621, -18.615723, -2.746582
2132546, 0.351318, 0.831055, -0.498901, 23.132332, -28.259285, -4.943848
2132566, 0.348999, 0.844727, -0.504272, 27.587898, -39.001465, -11.779789
2132586, 0.318726, 0.833984, -0.553467, 33.325195, -38.452148, -21.789551
2132606, 0.286743, 0.842651, -0.577515, 34.484863, -36.743164, -29.663094
2132626, 0.284668, 0.850220, -0.548462, 40.771484, -35.766602, -33.813477
2132646, 0.298706, 0.821655, -0.582520, 45.043961, -40.832520, -40.771484
2132666, 0.242676, 0.797852, -0.633911, 44.311539, -48.950211, -50.781265
2132686, 0.082642, 0.770142, -0.662109, 41.259766, -53.283707, -55.175797
2132706, -0.014038, 0.699829, -0.706787, 33.569336, -47.973648, -44.189453
2132726, 0.005493, 0.681641, -0.754639, 25.024422, -48.156754, -37.597656
2132746, -0.050415, 0.672974, -0.788330, 19.104004, -39.550781, -42.297363
2132766, -0.159790, 0.582397, -0.863647, 15.686039, -21.362305, -43.395996
2132786, -0.263306, 0.518921, -0.947266, 7.690432, -0.976563, -49.316422
2132806, -0.374146, 0.518799, -0.952515, -2.685547, 26.977547, -50.231949
2132826, -0.402222, 0.550659, -0.862061, -13.793949, 55.236832, -36.682129
2132846, -0.339233, 0.620361, -0.722168, -15.747074, 78.186035, -10.253906
2132866, -0.235474, 0.609131, -0.621582, -2.441406, 98.388702, 13.366703
2132886, -0.136108, 0.525513, -0.573730, 7.324221, 127.380402, 30.395515
2132906, -0.028687, 0.591797, -0.459717, 16.418457, 154.296875, 42.907715
2132926, 0.030273, 0.669922, -0.357422, 21.301270, 174.194336, 49.560562
2132946, 0.166260, 0.746094, -0.372437, 24.475105, 192.138733, 44.555679
2132966, 0.250732, 0.773315, -0.458374, 21.850586, 192.260803, 47.119156
2132986, 0.368408, 0.750610, -0.670044, 17.333984, 197.937073, 40.771484
2133006, 0.464111, 0.958374, -0.785645, -35.949707, 222.412170, 58.044449
2133026, 0.823120, 1.108154, -0.504517, -47.180191, 208.313049, 64.208984
2133046, 1.151001, 1.005615, -0.210449, -10.559082, 135.009766, 48.217789
2133066, 1.278687, 0.688477, -0.297363, 25.085457, 24.658211, -2.136230
2133086, 0.951538, 0.496338, -0.521606, 18.920898, -85.021973, -45.654312
2133106, 0.507324, 0.429932, -0.694092, -23.681648, -132.995605, -51.940933
2133126, 0.329712, 0.542480, -0.614746, -62.927261, -133.789063, -32.836914
2133146, 0.309570, 0.771484, -0.380005, -36.499023, -81.359863, -11.840824
2133166, 0.400024, 0.679688, -0.462646, -8.361816, -33.691406, -24.047859
2133186, 0.378296, 0.764771, -0.528442, -6.958010, -7.263186, -32.043457
2133206, 0.355591, 0.912109, -0.479858, -10.009766, -5.920412, -14.404301
2133226, 0.399780, 0.869019, -0.465332, -13.916019, -16.845703, 1.953125
2133246, 0.420654, 0.809814, -0.415894, -19.348145, -31.555183, 2.075195
2133266, 0.433716, 0.798950, -0.471558, -20.324707, -38.452148, -9.643555
2133286, 0.389648, 0.840088, -0.545166, -9.826660, -41.992188, -19.897461
2133306, 0.308960, 0.789795, -0.603149, -1.892090, -37.597656, -17.028809
2133346, 0.319092, 0.633301, -0.402710, 4.638672, 4.211426, 1.220703
2133366, 0.449951, 0.739380, -0.388916, 10.742188, 19.775391, -1.525879
2133386, 0.444702, 0.886841, -0.506348, 21.057129, 27.648933, -4.333496
2133406, 0.354248, 0.902466, -0.592041, 29.418953, 30.578621, 9.399414
2133426, 0.310303, 0.755005, -0.637329, 28.930672, 25.695808, 18.493652
2133446, 0.276978, 0.607544, -0.683594, 16.052246, 22.888191, 7.019045
2133466, 0.251465, 0.678345, -0.696045, -0.305176, 29.602058, -5.615236
2133486, 0.340210, 0.832153, -0.621094, -2.563477, 33.020020, -7.568361
2133506, 0.420532, 0.821045, -0.547974, -0.488281, 25.024422, -1.464844
2133526, 0.502319, 0.735596, -0.516113, -2.014160, 4.882813, -0.610352
2133546, 0.466675, 0.725220, -0.509766, -4.821777, -1.831055, -0.732422
2133566, 0.407593, 0.748047, -0.515015, -2.441406, -1.770020, -2.014160
2133586, 0.379517, 0.778076, -0.528931, 1.708985, 3.112794, -1.586915
2133606, 0.369385, 0.754639, -0.573120, 4.638672, 4.211426, -2.258301
2133626, 0.371826, 0.715698, -0.613403, 3.723145, 5.004883, -7.263186
2133646, 0.354614, 0.729370, -0.588501, -1.647950, 7.141115, -8.605957
2133666, 0.386353, 0.778198, -0.537964, -2.746582, 9.155273, -7.446291
2133686, 0.411499, 0.805908, -0.505127, -2.929688, 9.948730, -3.173829
2133706, 0.437256, 0.773193, -0.515869, -0.793457, 4.577637, 1.892090
2133726, 0.431763, 0.750122, -0.523438, -1.892090, -0.915528, 2.258301
2133746, 0.418823, 0.740845, -0.525879, -1.647950, -3.967286, 0.000000
2133766, 0.411255, 0.765625, -0.526001, -1.831055, -5.187988, -2.685547
2133786, 0.384155, 0.794556, -0.533569, 1.281738, -7.263186, -3.417970
2133806, 0.391846, 0.753540, -0.557617, 1.098633, -8.789063, -3.723145
2133826, 0.390503, 0.759521, -0.547363, -0.366211, -12.084965, -3.540040
2133846, 0.381592, 0.754639, -0.538330, -2.380371, -13.244633, -1.831055
2133866, 0.385010, 0.760498, -0.519653, -2.441406, -9.948730, -3.051759
2133886, 0.419434, 0.772705, -0.519043, -0.732422, -9.338379, -6.103518
2133906, 0.418945, 0.748047, -0.564331, 2.624512, -17.944336, -6.042482
2133926, 0.350464, 0.713379, -0.621826, -2.563477, -23.376472, -8.728027
2133946, 0.273926, 0.739868, -0.607422, -7.446291, -20.019531, -7.812502
2133966, 0.280029, 0.791626, -0.561157, -8.911133, -11.596684, -4.333496
2133986, 0.350952, 0.803589, -0.524170, -7.263186, -10.559082, -4.089355
2134006, 0.370361, 0.800537, -0.523315, -4.089355, -12.939457, -5.859377
2134026, 0.365845, 0.784546, -0.551880, -2.868653, -18.188477, -4.516602
2134046, 0.359253, 0.788086, -0.536865, -2.380371, -20.080566, -5.676271
2134066, 0.329712, 0.771362, -0.526978, -0.793457, -17.578125, -4.577637
2134086, 0.316772, 0.766724, -0.568237, -0.488281, -12.512211, -0.732422
2134106, 0.303833, 0.733276, -0.603149, -3.479005, -10.253906, 2.441406
2134126, 0.298096, 0.758057, -0.582153, -5.493164, -5.187988, 3.417970
2134146, 0.316040, 0.789185, -0.550537, -4.272461, -2.502441, 4.699707
2134166, 0.324463, 0.797119, -0.518799, -2.624512, -0.244141, 5.371094
2134186, 0.328491, 0.786743, -0.530762, -0.305176, 1.342773, 4.943848
2134206, 0.326172, 0.778320, -0.537598, -0.854492, 3.295899, 5.615236
2134226, 0.317993, 0.777466, -0.547119, 1.770020, 5.187988, 7.568361
2134246, 0.317139, 0.773071, -0.546021, 2.746582, 11.108402, 6.774904
2134266, 0.336914, 0.752563, -0.554932, 1.953125, 14.831547, 4.638672
2134286, 0.370239, 0.810181, -0.548218, -4.028320, 15.258793, 4.882813
2134306, 0.397827, 0.782104, -0.544800, -0.305176, 9.277344, 5.737307
2134326, 0.355225, 0.788208, -0.509033, 0.488281, 7.263186, 5.371094
2134347, 0.337402, 0.792969, -0.516846, 3.112794, 8.789063, 4.943848
2134427, 0.391357, 0.780640, -0.527832, -8.483887, 12.573246, 4.333496
2134447, 0.433838, 0.785645, -0.440918, 0.793457, 15.625004, -1.770020
2134467, 0.371582, 0.769653, -0.531860, 7.934572, 12.207035, -2.258301
2134487, 0.338257, 0.773071, -0.596924, 0.610352, 10.559082, -0.183106
2134507, 0.296509, 0.771484, -0.539795, -1.403809, 13.488773, 4.821777
2134527, 0.354004, 0.788940, -0.502930, -1.647950, 20.690918, 9.216309
2134547, 0.439819, 0.793823, -0.463623, 0.061035, 21.789551, 8.850098
2134567, 0.475830, 0.776367, -0.479004, 3.601075, 13.549809, 4.821777
2134587, 0.413696, 0.762695, -0.531250, 4.028320, 5.310059, 3.845216
2134607, 0.409546, 0.755859, -0.558838, 0.793457, 4.943848, 4.089355
2134627, 0.423096, 0.762207, -0.524414, -1.586915, 6.958010, 3.417970
2134647, 0.461792, 0.777954, -0.468140, 0.854492, 0.915528, 0.549316
2134667, 0.442627, 0.772827, -0.485718, 4.333496, -3.967286, -2.319336
2134687, 0.362793, 0.757568, -0.543335, 3.662110, -4.577637, -0.854492
2134707, 0.374878, 0.757202, -0.554932, 0.244141, -0.488281, 2.441406
2134727, 0.416870, 0.765503, -0.510132, -0.976563, 0.610352, 3.356935
2134747, 0.441406, 0.771240, -0.485596, 0.671387, -0.854492, 1.953125
2134767, 0.440796, 0.766479, -0.503662, 2.441406, -3.540040, 0.061035
2134787, 0.421631, 0.756348, -0.538330, 1.586915, -6.225588, -0.671387
2134807, 0.395264, 0.759766, -0.539673, -0.366211, -4.516602, -0.732422
2134827, 0.421631, 0.770996, -0.492676, -0.122070, 0.488281, -0.549316
2134847, 0.430542, 0.767822, -0.499878, 2.258301, -3.112794, -1.953125
2134867, 0.384277, 0.755005, -0.556396, 0.671387, -3.906251, -0.793457
2134887, 0.400513, 0.761353, -0.529419, -1.892090, -3.295899, 0.915528
2134907, 0.424561, 0.769409, -0.505493, -1.403809, -4.333496, 0.244141
2134927, 0.415161, 0.771240, -0.498779, 0.488281, -4.150391, -0.732422
2134947, 0.397461, 0.762329, -0.525269, 1.281738, -3.784181, -0.427246
2134967, 0.411499, 0.757935, -0.538330, -0.427246, -3.295899, -0.244141
2134987, 0.440063, 0.765503, -0.520264, -1.220703, -3.051759, -2.136230
2135007, 0.434692, 0.769531, -0.508545, -0.610352, -8.239746, -3.784181
2135027, 0.342896, 0.768799, -0.524658, -0.732422, -9.826660, -1.647950
2135047, 0.361328, 0.772339, -0.508179, 0.305176, 0.122070, 0.915528
2135067, 0.432983, 0.766357, -0.522583, 0.976563, 1.892090, 0.244141
2135087, 0.414063, 0.763428, -0.531372, 0.366211, -1.953125, -1.586915
2135107, 0.386230, 0.767456, -0.523560, -0.366211, -0.244141, -1.220703
2135127, 0.412109, 0.773926, -0.494873, 0.854492, 0.549316, -1.586915
2135147, 0.409302, 0.772095, -0.504517, 3.234864, -1.586915, -2.441406
2135167, 0.370117, 0.761719, -0.550293, 2.441406, -1.342773, -1.464844
2135187, 0.384521, 0.761597, -0.545654, 0.061035, 1.159668, 0.244141
2135227, 0.395264, 0.769409, -0.514893, 0.976563, -0.549316, 0.061035
2135247, 0.382935, 0.764771, -0.535522, 0.610352, -0.183106, 1.159668
2135267, 0.399902, 0.763550, -0.532227, -0.366211, 2.197266, 1.586915
2135307, 0.398804, 0.770996, -0.507446, 0.488281, 3.173829, -0.183106
2135327, 0.380127, 0.769897, -0.512817, 1.525879, 5.004883, 0.549316
2135347, 0.378662, 0.765015, -0.529541, 1.525879, 4.882813, 2.746582
2135367, 0.397461, 0.759644, -0.538940, -0.122070, 5.187988, 4.211426
2135387, 0.416382, 0.764038, -0.518433, -1.037598, 5.432129, 4.028320
2135407, 0.432373, 0.770264, -0.496948, 0.732422, 4.821777, 1.770020
2135427, 0.419312, 0.765015, -0.513794, 1.647950, 2.868653, 1.220703
2135447, 0.422852, 0.759888, -0.521851, 1.220703, 1.586915, 0.915528
2135467, 0.426636, 0.761108, -0.521973, 0.488281, -0.122070, 0.549316
2135487, 0.427124, 0.762329, -0.518066, -0.061035, -1.770020, -0.305176
2135507, 0.412842, 0.762939, -0.516357, 0.000000, -2.502441, -0.244141
2135527, 0.396606, 0.762817, -0.520386, -0.427246, -2.685547, 0.488281
2135547, 0.415771, 0.764038, -0.513306, -0.427246, -0.854492, 0.915528
2135567, 0.427002, 0.769409, -0.497437, 0.610352, -1.159668, 0.183106
2135587, 0.410889, 0.763062, -0.515991, 1.770020, -2.197266, -1.281738
2135607, 0.395630, 0.757324, -0.537109, 0.793457, -1.159668, -0.305176
2135627, 0.412109, 0.764038, -0.522217, -0.488281, -0.793457, 0.427246
2135647, 0.417847, 0.765503, -0.506592, -0.061035, -0.854492, 0.183106
2135667, 0.415161, 0.768066, -0.507324, 0.915528, -0.915528, -0.061035
2135687, 0.411499, 0.760986, -0.520996, 1.220703, -1.159668, -0.366211
2135707, 0.400146, 0.759766, -0.534424, -0.061035, -1.159668, 0.610352
2135727, 0.424316, 0.761719, -0.518799, -0.854492, -0.427246, 0.549316
2135747, 0.430908, 0.768066, -0.500854, -0.183106, -1.464844, -0.976563
2135767, 0.417358, 0.765259, -0.501099, 1.342773, -2.685547, -1.403809
2135787, 0.395142, 0.796997, -0.532227, 0.915528, -3.417970, 0.000000
2135807, 0.410156, 0.733154, -0.558838, -1.953125, 0.244141, -0.366211
2135827, 0.395142, 0.769409, -0.469360, -0.305176, 0.854492, 1.525879
2135847, 0.439087, 0.772339, -0.529663, 0.793457, -3.356935, 0.061035
2135867, 0.396484, 0.755615, -0.498169, 0.732422, 1.220703, -0.549316
2135887, 0.424927, 0.769775, -0.524170, 1.831055, -2.197266, -0.061035
2135907, 0.395508, 0.755371, -0.542603, 0.000000, -0.488281, -0.061035
2135927, 0.399658, 0.763672, -0.515381, -0.793457, 0.793457, 0.976563
2135947, 0.423828, 0.767090, -0.509277, -0.122070, -0.122070, 0.976563
2135967, 0.418457, 0.765015, -0.506348, 0.854492, 0.000000, 0.183106
2135987, 0.428833, 0.759644, -0.521851, 1.159668, -1.892090, -0.915528
2136007, 0.396606, 0.761353, -0.532959, 0.061035, -1.831055, -0.732422
2136027, 0.399780, 0.765869, -0.514404, -0.366211, 0.122070, 0.427246
2136047, 0.423096, 0.767578, -0.505615, 0.488281, -0.427246, 0.427246
2136067, 0.417358, 0.762939, -0.517334, 1.037598, -1.892090, -0.061035
2136087, 0.414551, 0.760986, -0.526245, 0.488281, -2.380371, -0.305176
2136107, 0.408813, 0.762573, -0.520752, 0.000000, -1.953125, -0.244141
2136127, 0.410400, 0.766235, -0.511108, 0.305176, -1.342773, -0.305176
2136147, 0.410400, 0.763672, -0.515991, 0.854492, -1.464844, -0.427246
2136167, 0.408081, 0.761597, -0.527466, 0.061035, -1.098633, -0.122070
2136187, 0.406250, 0.766113, -0.519653, -0.244141, -0.854492, 0.244141
2136207, 0.409912, 0.766113, -0.510132, 0.183106, -0.061035, 0.305176
2136227, 0.415771, 0.765381, -0.509521, 1.037598, -0.793457, 0.122070
2136247, 0.403931, 0.759888, -0.528442, 0.915528, -0.854492, 0.366211
2136267, 0.406738, 0.760986, -0.528687, -0.122070, -0.671387, 1.037598
2136287, 0.429565, 0.765259, -0.510986, -0.366211, -1.708985, 0.305176
2136327, 0.412598, 0.761597, -0.526611, 0.793457, -2.502441, -0.732422
2136347, 0.412598, 0.761475, -0.523804, 0.366211, -2.685547, -0.610352
2136367, 0.434937, 0.764648, -0.511108, 0.305176, -6.225588, -0.976563
2136387, 0.424561, 0.759888, -0.537842, 0.366211, -12.756351, -2.380371
2136407, 0.347534, 0.755981, -0.548096, -1.037598, -6.225588, -1.464844
2136427, 0.373047, 0.766602, -0.516724, -2.441406, 6.103518, -0.183106
2136447, 0.425171, 0.777100, -0.476318, 0.244141, 4.516602, 0.183106
2136467, 0.437622, 0.770874, -0.498047, 2.929688, -0.244141, -1.586915
2136487, 0.363403, 0.758667, -0.544312, 2.746582, -1.220703, -0.976563
2136507, 0.336548, 0.755615, -0.565308, -0.427246, 4.455566, 2.807618
2136527, 0.376953, 0.761108, -0.537109, -2.929688, 13.671879, 6.042482
2136547, 0.471558, 0.772217, -0.480225, 0.732422, 12.817387, 3.295899
2136567, 0.473267, 0.764648, -0.489502, 2.319336, 4.699707, -0.122070
2136587, 0.424927, 0.759766, -0.521484, 3.295899, -0.610352, -1.708985
2136607, 0.353760, 0.747803, -0.575562, 0.183106, 3.662110, -0.183106
2136627, 0.299194, 0.757324, -0.546265, -3.784181, 18.554688, 4.882813
2136647, 0.394409, 0.771606, -0.456421, -2.502441, 31.250008, 8.728027
2136667, 0.499023, 0.778687, -0.435791, 6.958010, 29.541023, 4.699707
2136687, 0.512939, 0.787354, -0.489502, 15.075687, 16.723633, -5.249023
2136707, 0.506470, 0.766602, -0.557861, 18.554688, 8.239746, -19.897461
2136727, 0.396606, 0.744751, -0.569702, 10.314941, -9.155273, -22.094727
2136747, 0.390625, 0.789551, -0.527100, 9.643555, -11.413578, -21.850586
2136767, 0.469727, 0.816162, -0.544922, 14.099125, -17.456055, -37.170410
2136787, 0.430054, 0.800171, -0.509888, 5.859377, -33.386230, -41.870117
2136807, 0.555908, 0.804077, -0.513062, 0.671387, -53.039566, -47.607437
2136827, 0.435181, 0.758301, -0.558228, -12.573246, -82.153320, -44.189453
2136847, 0.475952, 0.782104, -0.633179, -34.912109, -110.107452, -38.940430
2136867, 0.334351, 0.832275, -0.606201, -59.448257, -134.521484, -34.729004
2136887, 0.241455, 0.796509, -0.493896, -74.707031, -136.962891, -31.860359
2136907, 0.244385, 0.788940, -0.454468, -73.547363, -132.568359, -20.324707
2136927, 0.233887, 0.814941, -0.490356, -78.247070, -111.572296, -10.559082
2136947, 0.196289, 0.863770, -0.336060, -81.909180, -92.834503, -2.258301
2136967, 0.185181, 0.860596, -0.308350, -58.349625, -79.467773, -5.187988
2136987, 0.063477, 0.840698, -0.435425, -44.311539, -69.274902, 8.972168
2137007, -0.014282, 0.868896, -0.415771, -24.047859, -67.749023, 18.432617
2137027, -0.079590, 0.856445, -0.361816, -7.751467, -48.217789, 48.645035
2137047, -0.025635, 0.917603, -0.289917, 13.244633, -29.357918, 63.049332
2137067, -0.117310, 0.894775, -0.375488, 31.616219, 40.649414, 68.176270
2137087, 0.062256, 0.850098, -0.535400, 34.545898, 87.341309, 55.542007
2137107, -0.101685, 0.730103, -0.259033, 57.434097, 154.846191, 72.937012
2137127, 0.062622, 0.740967, -0.392578, 89.721710, 246.643127, 100.280792
2137147, 0.591187, 0.866211, -0.671631, 61.035172, 231.079163, 79.589844
2137167, 0.839111, 0.878296, -0.504272, 23.315437, 148.193359, 38.940430
2137187, 0.732788, 0.841553, -0.228516, 29.846199, 76.110840, 20.568848
2137207, 0.616943, 0.795532, -0.387939, 35.156250, 32.958984, 4.333496
2137227, 0.261475, 0.751099, -0.507935, 41.870117, 60.852066, 8.422852
2137247, 0.305054, 0.780762, -0.511597, 25.329597, 90.271027, 15.625004
2137327, 0.600830, 0.751099, -0.497314, 32.653809, 85.510254, -0.244141
2137347, 0.704834, 0.785522, -0.285522, 18.859863, 50.903336, -3.051759
2137367, 0.632446, 0.770386, -0.302490, 25.268562, 27.038582, -9.582520
2137387, 0.631226, 0.761719, -0.336426, 21.728516, 19.958496, -9.277344
2137407, 0.619629, 0.754150, -0.386597, 25.329597, 14.526371, -16.906738
2137427, 0.549072, 0.727417, -0.461304, 27.221687, 9.155273, -23.254402
2137447, 0.544800, 0.736694, -0.450928, 20.385742, 6.591799, -19.165039
2137467, 0.562744, 0.724365, -0.305298, 8.544922, 1.464844, -10.131836
2137487, 0.631592, 0.742065, -0.269897, 9.399414, -13.549809, -5.737307
2137507, 0.563599, 0.728516, -0.420044, 8.239746, -12.878422, -5.920412
2137527, 0.528442, 0.724731, -0.474365, 1.464844, -9.826660, -4.150391
2137547, 0.525635, 0.739990, -0.424194, -2.990724, -10.192871, -1.342773
2137567, 0.547729, 0.749512, -0.385132, -2.929688, -13.610844, -0.244141
2137587, 0.536133, 0.748901, -0.392578, -1.953125, -13.061527, 0.122070
2137607, 0.515015, 0.752930, -0.393799, -0.793457, -5.798342, 0.427246
2137627, 0.568970, 0.754761, -0.361938, 1.770020, -2.746582, -0.427246
