timestamp,ax,ay,az,gx,gy,gz
981322, -0.104858, 0.200562, 0.960083, 0.183106, -2.990724, 0.305176
981342, -0.096191, 0.203491, 0.975342, 0.061035, -2.685547, 0.061035
981362, -0.115234, 0.201050, 0.962524, 1.342773, 7.202150, -1.647950
981382, -0.107910, 0.201416, 0.959961, 0.061035, -4.394531, 0.488281
981402, -0.108398, 0.201538, 0.965088, 0.488281, -0.549316, -0.122070
981422, -0.095703, 0.203735, 0.970703, -0.061035, -3.051759, 0.061035
981442, -0.117188, 0.199219, 0.954956, 0.915528, 0.732422, -0.305176
981462, -0.100708, 0.202881, 0.968994, -0.427246, -7.446291, 1.037598
981482, -0.098755, 0.201904, 0.970581, 0.732422, 4.272461, -1.159668
981502, -0.110962, 0.199951, 0.958130, 0.305176, -2.014160, 0.122070
981522, -0.096558, 0.202393, 0.973145, 0.366211, -0.427246, -0.244141
981542, -0.110962, 0.200439, 0.956787, 0.488281, -0.549316, -0.183106
981562, -0.099854, 0.201538, 0.969238, 0.732422, 1.647950, -0.488281
981582, -0.104248, 0.201538, 0.962524, 0.427246, -0.793457, -0.122070
981602, -0.106201, 0.202393, 0.965210, 0.610352, 2.441406, -0.854492
981622, -0.105835, 0.200562, 0.965210, 0.305176, -1.220703, -0.061035
981642, -0.102783, 0.201660, 0.967407, 0.427246, 0.366211, -0.427246
981662, -0.106445, 0.200806, 0.962646, 0.366211, -0.305176, -0.305176
981682, -0.105469, 0.205444, 0.965820, 0.549316, -0.427246, -1.342773
981702, -0.108032, 0.198975, 0.964111, 0.488281, -1.159668, -2.136230
981722, -0.113403, 0.198730, 0.960449, 0.305176, -2.624512, 0.427246
981742, -0.093018, 0.202148, 0.975464, 0.488281, 0.366211, -0.366211
981762, -0.110718, 0.200806, 0.958984, 0.610352, 0.610352, -0.427246
981782, -0.102417, 0.200562, 0.967896, 0.244141, -2.685547, 0.244141
981802, -0.101929, 0.202026, 0.966553, 0.488281, 0.488281, -0.366211
981822, -0.107544, 0.201172, 0.963989, 0.488281, 0.183106, -0.366211
981842, -0.103394, 0.201294, 0.965454, 0.183106, -1.831055, 0.061035
981862, -0.105347, 0.201416, 0.962646, 0.488281, 0.061035, -0.366211
981882, -0.111206, 0.201660, 0.962402, 0.244141, -2.197266, 0.061035
981902, -0.092773, 0.201904, 0.974365, 0.305176, -0.915528, -0.122070
981922, -0.106934, 0.200684, 0.967041, 1.342773, 6.652834, -1.525879
981942, -0.102173, 0.202271, 0.969360, 0.061035, -2.441406, 0.122070
981962, -0.108154, 0.201172, 0.964966, 0.671387, 1.220703, -0.488281
981982, -0.106934, 0.201538, 0.963867, 0.244141, -1.708985, 0.000000
982002, -0.105103, 0.202148, 0.967041, 0.549316, 0.732422, -0.427246
982022, -0.110962, 0.201172, 0.961548, 0.366211, -0.854492, -0.122070
982042, -0.106689, 0.201660, 0.963745, -0.061035, -4.150391, 0.488281
982062, -0.102173, 0.201904, 0.967773, 0.183106, -2.197266, 0.122070
982082, -0.107056, 0.201904, 0.963745, 0.366211, -1.037598, -0.061035
982102, -0.103271, 0.201904, 0.966553, 0.366211, -0.976563, -0.122070
982122, -0.106812, 0.201416, 0.962646, 0.732422, 1.403809, -0.488281
982142, -0.106201, 0.201294, 0.965332, 0.122070, -3.173829, 0.305176
982162, -0.104492, 0.201538, 0.966797, 0.549316, 0.122070, -0.244141
982182, -0.106445, 0.201538, 0.964478, 0.244141, -1.525879, 0.000000
982202, -0.103882, 0.202393, 0.969482, 0.488281, -0.122070, -0.244141
982222, -0.106201, 0.200439, 0.960693, 0.305176, -0.671387, -0.122070
982242, -0.102539, 0.202026, 0.968750, 0.427246, -0.610352, -0.183106
982262, -0.107544, 0.201050, 0.962158, 0.488281, 0.061035, -0.305176
982282, -0.104004, 0.201782, 0.967163, 0.488281, -0.244141, -0.244141
982302, -0.107788, 0.200684, 0.962646, 0.488281, -0.305176, -0.183106
982322, -0.104126, 0.202026, 0.965454, 0.305176, -1.220703, -0.061035
982342, -0.105347, 0.202393, 0.964966, 0.366211, -0.854492, -0.122070
982362, -0.106079, 0.201050, 0.965088, 0.427246, -0.366211, -0.244141
982382, -0.106323, 0.201172, 0.964355, 0.366211, -0.854492, -0.122070
982402, -0.105469, 0.201660, 0.963867, 0.244141, -1.586915, 0.000000
982422, -0.103027, 0.201782, 0.967651, 0.244141, -1.770020, 0.000000
982442, -0.104370, 0.200317, 0.965942, 0.549316, 0.427246, -0.366211
982462, -0.105591, 0.201294, 0.964233, 0.366211, -0.976563, -0.122070
982482, -0.104248, 0.201172, 0.964844, 0.488281, -0.244141, -0.244141
982502, -0.103760, 0.202026, 0.965454, 0.305176, -1.525879, -0.061035
982522, -0.105103, 0.201050, 0.965210, 0.305176, -1.464844, 0.000000
982542, -0.103149, 0.201294, 0.965576, 0.244141, -1.831055, 0.122070
982562, -0.103027, 0.201294, 0.966919, 0.366211, -1.037598, -0.061035
982582, -0.103516, 0.201172, 0.966797, 0.549316, 0.610352, -0.366211
982602, -0.106323, 0.200684, 0.962891, 0.488281, 0.000000, -0.305176
982622, -0.104492, 0.201050, 0.964355, 0.305176, -1.403809, 0.000000
982642, -0.103516, 0.201782, 0.965454, 0.366211, -0.793457, -0.122070
982662, -0.104858, 0.201172, 0.963989, 0.305176, -1.770020, 0.061035
982682, -0.102539, 0.201294, 0.966919, 0.305176, -1.342773, 0.000000
982702, -0.104370, 0.202026, 0.964233, 0.366211, -0.671387, -0.183106
982722, -0.104248, 0.201660, 0.965210, 0.305176, -1.220703, -0.061035
982742, -0.102539, 0.201416, 0.965332, 0.366211, -1.159668, -0.061035
982762, -0.101807, 0.201416, 0.967773, 0.366211, -0.793457, -0.122070
982782, -0.104248, 0.200562, 0.963745, 0.488281, 0.183106, -0.305176
982802, -0.102905, 0.201050, 0.965576, 0.305176, -1.586915, 0.000000
982822, -0.102783, 0.201660, 0.966553, 0.488281, 0.122070, -0.305176
982842, -0.104370, 0.200928, 0.965454, 0.488281, -0.122070, -0.244141
982862, -0.104736, 0.201050, 0.965332, 0.488281, -0.183106, -0.244141
982882, -0.103271, 0.201172, 0.965698, 0.244141, -1.892090, 0.000000
982902, -0.102417, 0.201904, 0.966187, 0.366211, -0.915528, -0.122070
982922, -0.102539, 0.201050, 0.965698, 0.427246, -0.183106, -0.244141
982942, -0.103516, 0.201294, 0.966431, 0.549316, 1.037598, -0.488281
982962, -0.104980, 0.201660, 0.965088, 0.610352, 0.793457, -0.427246
982982, -0.105469, 0.201416, 0.964355, 0.488281, 0.061035, -0.244141
983002, -0.104980, 0.201538, 0.963867, 0.366211, -0.854492, -0.122070
983022, -0.104248, 0.202026, 0.968750, 0.366211, -0.610352, -0.183106
983042, -0.104248, 0.201294, 0.965454, 0.549316, 0.793457, -0.366211
983062, -0.109131, 0.201050, 0.961792, 0.183106, -2.563477, 0.183106
983082, -0.101807, 0.202637, 0.969727, 0.671387, 2.258301, -0.732422
983102, -0.110718, 0.201294, 0.960327, 0.427246, -0.183106, -0.244141
983122, -0.104248, 0.201538, 0.967163, 0.244141, -1.525879, 0.000000
983142, -0.104858, 0.201538, 0.966187, 0.549316, 0.122070, -0.305176
983162, -0.106323, 0.201538, 0.963013, 0.366211, -0.976563, -0.122070
983182, -0.104492, 0.201294, 0.966675, 0.366211, -0.732422, -0.183106
983202, -0.106201, 0.201050, 0.963867, 0.427246, -0.732422, -0.122070
983222, -0.106323, 0.201782, 0.964355, 0.305176, -1.647950, 0.000000
983242, -0.105957, 0.200928, 0.964355, 0.244141, -2.075195, 0.122070
983302, -0.103516, 0.201782, 0.964844, 0.427246, -0.549316, -0.183106
983322, -0.103516, 0.202393, 0.965698, 0.488281, -0.366211, -0.244141
983342, -0.104370, 0.202148, 0.964844, 0.427246, -0.366211, -0.183106
983362, -0.104126, 0.201294, 0.964233, 0.305176, -1.342773, 0.000000
983382, -0.103394, 0.201172, 0.966187, 0.305176, -1.281738, 0.000000
983402, -0.103638, 0.201294, 0.965576, 0.366211, -1.037598, -0.122070
983422, -0.103027, 0.201538, 0.966431, 0.366211, -0.793457, -0.122070
983442, -0.102905, 0.201660, 0.965088, 0.366211, -0.427246, -0.244141
983462, -0.102783, 0.201294, 0.966675, 0.305176, -1.098633, -0.061035
983482, -0.103027, 0.201416, 0.965088, 0.366211, -1.037598, -0.061035
983502, -0.104248, 0.200684, 0.964722, 0.305176, -1.342773, 0.000000
983522, -0.102783, 0.201416, 0.966064, 0.244141, -1.708985, 0.061035
983542, -0.102905, 0.201172, 0.965332, 0.305176, -1.342773, 0.000000
983562, -0.099609, 0.202026, 0.966431, 0.305176, -1.403809, 0.000000
983582, -0.102539, 0.200684, 0.968506, 0.732422, 4.272461, -1.098633
983602, -0.108154, 0.201294, 0.959229, 0.061035, -3.540040, 0.366211
983622, -0.098145, 0.200928, 0.969482, 0.427246, -0.366211, -0.183106
983642, -0.103516, 0.200439, 0.965820, 0.244141, -2.197266, 0.122070
983662, -0.102295, 0.201660, 0.966309, 0.427246, -0.427246, -0.183106
983682, -0.098755, 0.201416, 0.967529, 0.427246, 1.708985, -0.732422
983702, -0.109253, 0.201660, 0.960815, 0.305176, -2.197266, 0.122070
983722, -0.094360, 0.202026, 0.972412, 0.305176, -0.915528, -0.244141
983742, -0.110840, 0.201294, 0.960327, 0.732422, 1.098633, -0.427246
983762, -0.099731, 0.200806, 0.970093, 0.183106, -0.366211, -0.244141
983782, -0.106812, 0.200439, 0.961670, 0.488281, 0.610352, -0.366211
983802, -0.103638, 0.201416, 0.964233, 0.122070, -3.112794, 0.305176
983822, -0.102051, 0.200928, 0.967163, 0.610352, 1.159668, -0.549316
983842, -0.102661, 0.201416, 0.966431, -0.061035, -4.150391, 0.427246
983862, -0.096436, 0.201538, 0.969238, 0.305176, -0.061035, -0.366211
983882, -0.104004, 0.201294, 0.963379, 0.488281, -0.366211, -0.183106
983902, -0.100708, 0.201294, 0.967529, 0.427246, 0.000000, -0.244141
983922, -0.102783, 0.199951, 0.964844, 0.488281, -0.061035, -0.244141
983942, -0.100830, 0.200806, 0.967529, 0.671387, 1.831055, -0.610352
983962, -0.108887, 0.201050, 0.959473, 0.366211, -1.464844, 0.000000
983982, -0.097656, 0.202637, 0.970581, 0.061035, -3.417970, 0.244141
984002, -0.103638, 0.200439, 0.966675, 0.854492, 3.173829, -0.854492
984022, -0.101929, 0.202026, 0.967529, 0.366211, -1.647950, 0.061035
984042, -0.102539, 0.201538, 0.966797, 0.549316, 0.549316, -0.427246
984062, -0.108521, 0.201660, 0.961548, 0.366211, -1.220703, -0.061035
984082, -0.101685, 0.201660, 0.967773, 0.244141, -2.136230, 0.122070
984102, -0.103149, 0.201904, 0.964722, 0.427246, -0.671387, -0.122070
984122, -0.101685, 0.201416, 0.968018, 0.488281, 0.061035, -0.244141
984142, -0.108276, 0.201050, 0.961182, 0.122070, -3.356935, 0.305176
984162, -0.097534, 0.202759, 0.971680, 0.427246, 1.159668, -0.732422
984182, -0.109619, 0.204590, 0.958374, 0.610352, -2.868653, -3.356935
984202, -0.097778, 0.195557, 0.971924, 0.183106, -3.601075, -0.427246
984222, -0.107422, 0.200684, 0.962891, 0.610352, 1.037598, -0.488281
984242, -0.101196, 0.201172, 0.967773, 0.488281, 0.427246, -0.366211
984262, -0.106079, 0.201050, 0.963745, 0.549316, 0.366211, -0.366211
984282, -0.104492, 0.201538, 0.964844, 0.366211, -1.525879, 0.061035
984302, -0.102173, 0.202026, 0.966919, 0.488281, -0.366211, -0.183106
984322, -0.104248, 0.200684, 0.965576, 0.427246, -0.488281, -0.244141
984342, -0.107300, 0.200317, 0.962402, 0.305176, -1.159668, -0.061035
984362, -0.099731, 0.202148, 0.968994, 0.305176, -1.220703, -0.061035
984382, -0.105469, 0.200195, 0.963135, 0.549316, 0.366211, -0.366211
984402, -0.101929, 0.201538, 0.967285, 0.366211, -1.037598, -0.122070
984422, -0.104858, 0.201172, 0.964233, 0.427246, -0.610352, -0.183106
984442, -0.103638, 0.201782, 0.965454, 0.366211, -0.915528, -0.122070
984462, -0.105103, 0.201782, 0.965210, 0.427246, -0.732422, -0.183106
984482, -0.103638, 0.201172, 0.964355, 0.305176, -2.014160, 0.122070
984502, -0.101440, 0.201294, 0.967163, 0.244141, -1.770020, 0.061035
984522, -0.099487, 0.200928, 0.968506, 0.488281, 1.831055, -0.671387
984542, -0.109741, 0.201416, 0.959106, 0.549316, -0.061035, -1.831055
984562, -0.099487, 0.206421, 0.967285, 0.427246, -2.380371, -2.380371
984582, -0.101440, 0.202759, 0.965088, 0.671387, -1.464844, -3.112794
984602, -0.104980, 0.199219, 0.963745, 1.342773, -2.746582, -8.117676
984622, -0.102173, 0.192017, 0.968262, 0.366211, -2.441406, -1.159668
984642, -0.101318, 0.201050, 0.965698, 0.488281, 0.488281, -0.427246
984662, -0.108398, 0.199829, 0.960327, 0.122070, -4.089355, 0.549316
984682, -0.095093, 0.201538, 0.970581, 0.183106, -1.525879, -0.061035
984702, -0.103394, 0.199951, 0.964844, 0.488281, -0.244141, -0.183106
984722, -0.098633, 0.200684, 0.968750, 0.549316, 0.366211, -0.366211
984742, -0.103149, 0.200928, 0.966675, 0.427246, 0.488281, -0.549316
984762, -0.100708, 0.224731, 0.956665, -0.305176, -9.582520, -2.014160
984782, -0.108276, 0.205322, 0.956421, 2.502441, -16.662598, -29.846199
984802, -0.086426, 0.197388, 0.972412, 3.540040, -9.887695, -32.043457
984822, -0.104980, 0.184814, 0.968750, 3.356935, -2.014160, -25.329597
984842, -0.102051, 0.169800, 0.973267, 1.464844, -0.976563, -8.666992
984862, -0.091919, 0.201782, 0.971802, 1.708985, 9.521484, -2.075195
984882, -0.113037, 0.201172, 0.960449, 1.403809, 5.737307, -1.403809
984902, -0.108765, 0.202271, 0.959595, 0.610352, -0.122070, -0.305176
984922, -0.110474, 0.203735, 0.960571, 0.122070, -4.638672, -1.037598
984942, -0.097534, 0.202515, 0.971680, 0.427246, -3.234864, -2.319336
984962, -0.101196, 0.198608, 0.969238, 0.976563, 2.258301, -2.136230
985002, -0.113037, 0.201050, 0.958618, 0.854492, 1.647950, -0.610352
985022, -0.105957, 0.202148, 0.965454, -0.549316, -8.117676, 1.220703
985042, -0.096191, 0.201538, 0.972778, 0.732422, 2.319336, -0.671387
985062, -0.109131, 0.201294, 0.959473, 0.549316, 0.610352, -0.366211
985082, -0.104370, 0.201782, 0.965088, 0.000000, -3.784181, 0.305176
985102, -0.102539, 0.201294, 0.967896, 0.671387, 1.831055, -0.671387
985182, -0.106079, 0.202026, 0.964355, 0.000000, -3.356935, 0.305176
985202, -0.102905, 0.201904, 0.967529, 0.488281, 0.366211, -0.244141
985222, -0.106567, 0.201538, 0.961426, 0.061035, -3.295899, 0.244141
985242, -0.100342, 0.201904, 0.970337, 0.488281, 0.061035, -0.305176
985262, -0.106812, 0.201172, 0.962524, 0.366211, -0.793457, -0.122070
985282, -0.102417, 0.201660, 0.967407, 0.366211, -0.427246, -0.244141
985302, -0.106201, 0.201538, 0.962524, 0.366211, -1.098633, -0.061035
985322, -0.104004, 0.201172, 0.965088, 0.122070, -2.807618, 0.244141
985342, -0.102295, 0.202393, 0.967041, 0.305176, -1.159668, -0.122070
985362, -0.104614, 0.201416, 0.963501, 0.244141, -2.441406, 0.183106
985382, -0.102417, 0.202026, 0.964233, -0.122070, -5.676271, 0.671387
985402, -0.092896, 0.201050, 0.973022, 0.976563, 3.601075, -0.976563
985422, -0.114014, 0.199707, 0.955322, 0.305176, -2.258301, 0.183106
985442, -0.091675, 0.201416, 0.974487, 0.122070, -2.319336, 0.122070
985462, -0.104980, 0.201294, 0.962036, 0.671387, 1.647950, -0.549316
985482, -0.100586, 0.201904, 0.965820, 0.244141, -1.586915, 0.000000
985502, -0.107544, 0.200195, 0.961792, 0.183106, -2.746582, 0.244141
985522, -0.094727, 0.201416, 0.971313, 0.122070, -3.417970, 0.366211
985542, -0.104370, 0.201416, 0.962646, 0.305176, -0.915528, -0.183106
985562, -0.100098, 0.200806, 0.966553, 0.366211, -0.732422, -0.122070
985582, -0.098022, 0.201172, 0.966187, 0.122070, -2.624512, 0.183106
985602, -0.099365, 0.201172, 0.966187, 0.488281, 0.183106, -0.305176
985622, -0.100464, 0.200439, 0.965088, 0.244141, -2.136230, 0.122070
985642, -0.096924, 0.200684, 0.967773, 0.305176, -0.671387, -0.244141
985662, -0.100830, 0.201416, 0.965576, 0.366211, -0.915528, -0.122070
985682, -0.096680, 0.201782, 0.967407, 0.488281, 0.671387, -0.427246
985702, -0.099976, 0.201782, 0.965332, 0.732422, 2.746582, -0.793457
985722, -0.102539, 0.197754, 0.955200, 0.488281, 2.380371, -0.732422
985742, -0.103149, 0.199097, 0.946167, 0.793457, 1.647950, -0.549316
985762, -0.106201, 0.201416, 0.967407, 0.061035, -2.990724, 0.244141
985782, -0.098511, 0.201416, 0.964844, 0.610352, 1.159668, -0.488281
985802, -0.106812, 0.201782, 0.968384, 0.244141, -1.831055, 0.000000
985822, -0.098389, 0.201172, 0.967041, 0.671387, 1.342773, -0.488281
985842, -0.108032, 0.201050, 0.960938, 0.366211, -0.793457, -0.122070
985862, -0.101074, 0.201416, 0.968262, 0.366211, -0.854492, -0.122070
985882, -0.104858, 0.201538, 0.964844, 0.549316, 1.037598, -0.427246
985902, -0.104614, 0.202148, 0.966919, 0.427246, -0.671387, -0.122070
985922, -0.105835, 0.201416, 0.963989, 0.061035, -3.784181, 0.366211
985942, -0.100098, 0.200562, 0.964844, 0.061035, -3.295899, 0.305176
985962, -0.101929, 0.201294, 0.965820, 0.122070, -2.990724, 0.244141
985982, -0.100342, 0.202515, 0.978271, 0.183106, -1.464844, 0.000000
986002, -0.096802, 0.200439, 0.957642, 0.732422, 1.892090, -0.610352
986022, -0.104370, 0.201538, 0.965332, 0.549316, -0.122070, -0.244141
986042, -0.100098, 0.201294, 0.965210, 0.488281, -0.122070, -0.244141
986062, -0.103882, 0.200439, 0.961304, 0.366211, -0.488281, -0.183106
986082, -0.100342, 0.202271, 0.969116, 0.244141, -2.075195, 0.061035
986102, -0.101440, 0.201416, 0.965454, 0.366211, -0.305176, -0.244141
986122, -0.098999, 0.200684, 0.963867, 0.488281, 0.244141, -0.305176
986142, -0.102539, 0.201782, 0.968018, 0.549316, 0.244141, -0.366211
986162, -0.105835, 0.202271, 0.960205, 0.427246, -1.098633, -0.061035
986182, -0.097656, 0.202271, 0.970459, 0.183106, -2.136230, 0.061035
986202, -0.102661, 0.201050, 0.964722, 0.610352, 1.159668, -0.488281
986222, -0.104126, 0.200073, 0.964844, 0.488281, -0.427246, -0.244141
986242, -0.102173, 0.201050, 0.965332, 0.244141, -1.892090, 0.061035
986262, -0.097534, 0.201050, 0.968506, 0.549316, 0.671387, -0.366211
986282, -0.105591, 0.201172, 0.963989, 0.549316, 0.305176, -0.305176
986302, -0.103516, 0.201904, 0.965332, 0.427246, -0.244141, -0.244141
986322, -0.103638, 0.201660, 0.964844, 0.305176, -1.220703, -0.061035
986342, -0.102295, 0.201294, 0.966064, 0.366211, -1.037598, -0.061035
986362, -0.101440, 0.201416, 0.966431, 0.366211, -0.732422, -0.183106
986382, -0.103027, 0.201538, 0.965210, 0.549316, 0.244141, -0.305176
986402, -0.102539, 0.200928, 0.965088, 0.366211, -0.915528, -0.122070
986422, -0.102783, 0.201172, 0.966187, 0.549316, 0.610352, -0.366211
986442, -0.103638, 0.202026, 0.965820, 0.549316, 0.671387, -0.366211
986462, -0.108154, 0.201538, 0.961060, 0.244141, -2.563477, 0.244141
986482, -0.097412, 0.201538, 0.970215, 0.122070, -2.746582, 0.244141
986502, -0.104858, 0.201416, 0.963989, 0.427246, -0.671387, -0.183106
986522, -0.099365, 0.201904, 0.968384, 0.549316, 1.403809, -0.610352
986542, -0.108887, 0.201416, 0.960327, 0.427246, -0.976563, -0.061035
986562, -0.100098, 0.202271, 0.969604, 0.427246, 0.000000, -0.305176
986582, -0.110352, 0.200195, 0.960205, 0.427246, -0.610352, -0.061035
986602, -0.101074, 0.201172, 0.965210, -0.061035, -4.333496, 0.549316
986622, -0.099121, 0.201782, 0.968628, 0.488281, -0.427246, -0.122070
986642, -0.104004, 0.201538, 0.965088, 0.366211, -0.488281, -0.183106
986662, -0.101685, 0.200806, 0.964844, 0.305176, -0.915528, -0.122070
986682, -0.104736, 0.200317, 0.961914, 0.366211, -0.732422, -0.061035
986702, -0.099854, 0.201660, 0.967651, 0.122070, -2.563477, 0.244141
986722, -0.101196, 0.201416, 0.964844, 0.488281, -1.159668, -0.061035
986742, -0.101929, 0.200806, 0.966797, 0.305176, -2.319336, 0.244141
986762, -0.100830, 0.201050, 0.965332, 0.305176, -1.281738, 0.000000
986782, -0.100464, 0.201172, 0.965088, 0.244141, -2.014160, 0.183106
986802, -0.098145, 0.201660, 0.966919, 0.366211, -0.610352, -0.183106
986822, -0.099854, 0.201172, 0.966187, 0.305176, -0.854492, -0.183106
986842, -0.101196, 0.201904, 0.965454, 0.427246, -0.427246, -0.183106
986862, -0.101074, 0.202026, 0.964966, 0.366211, -0.244141, -0.244141
986882, -0.096924, 0.201172, 0.967651, 0.305176, -1.403809, 0.061035
986902, -0.099487, 0.201416, 0.965576, 0.488281, -0.183106, -0.183106
986922, -0.102051, 0.201050, 0.965088, 0.366211, -1.464844, 0.000000
986942, -0.099731, 0.200928, 0.965454, 0.305176, -2.380371, 0.183106
986962, -0.098022, 0.200806, 0.965820, 0.122070, -2.929688, 0.427246
986982, -0.098389, 0.199219, 0.966919, 0.122070, -2.868653, 1.098633
987002, -0.096436, 0.201294, 0.966797, 0.000000, -3.234864, 1.953125
987022, -0.093262, 0.203613, 0.965454, 0.244141, -2.136230, 0.488281
987042, -0.100830, 0.200928, 0.964233, -0.061035, -5.432129, 0.793457
987062, -0.086182, 0.200195, 0.970215, -0.183106, -8.361816, 1.281738
987082, -0.085693, 0.201172, 0.967163, 0.061035, -3.417970, 0.305176
987102, -0.086914, 0.200073, 0.968018, 0.305176, -1.708985, 0.000000
987122, -0.086548, 0.199951, 0.968140, 0.305176, -1.403809, -0.061035
987142, -0.086548, 0.200562, 0.968384, 0.366211, 0.610352, -0.427246
987162, -0.087769, 0.199829, 0.967896, 0.549316, 1.281738, -0.488281
987182, -0.088989, 0.200562, 0.967285, 0.549316, 2.014160, -0.610352
987202, -0.090820, 0.200195, 0.967285, 0.610352, 2.075195, -0.610352
987222, -0.091187, 0.201050, 0.967041, 0.671387, 1.586915, -0.488281
987242, -0.088501, 0.200439, 0.968018, 0.732422, 3.051759, -0.915528
987262, -0.097778, 0.200439, 0.964600, 0.793457, 3.845216, -0.976563
987282, -0.101685, 0.199707, 0.961426, 0.122070, -1.159668, -0.122070
987302, -0.088745, 0.202026, 0.971191, 0.305176, -1.159668, -0.122070
987322, -0.100220, 0.200806, 0.965454, 0.549316, 0.976563, -0.488281
987342, -0.095459, 0.200806, 0.967163, 0.244141, -1.464844, 0.000000
987362, -0.095459, 0.200806, 0.967651, 0.488281, 0.122070, -0.305176
987382, -0.098145, 0.200439, 0.964233, 0.366211, -0.976563, -0.061035
987402, -0.092773, 0.201050, 0.968506, 0.427246, -0.183106, -0.244141
987422, -0.096191, 0.200806, 0.966431, 0.671387, 1.892090, -0.610352
987442, -0.099731, 0.200684, 0.964355, 0.427246, 0.000000, -0.305176
987462, -0.098511, 0.201294, 0.965454, 0.244141, -1.647950, 0.000000
987482, -0.096191, 0.201904, 0.967407, 0.244141, -1.647950, -0.061035
987502, -0.097046, 0.200317, 0.965088, 0.305176, -0.976563, -0.122070
987522, -0.093628, 0.201294, 0.969482, 0.183106, -1.892090, -0.061035
987542, -0.120972, 0.197876, 0.954224, -0.854492, -12.756351, 2.197266
987562, -0.076538, 0.202759, 0.972046, -0.305176, -15.930180, 2.807618
987582, -0.074951, 0.199585, 0.970459, 0.488281, 0.610352, -0.427246
987602, -0.105469, 0.199951, 0.967041, -0.244141, -8.666992, 1.342773
987622, -0.065063, 0.200928, 0.966675, 0.732422, -6.896975, 1.037598
987642, -0.097412, 0.197266, 0.971680, 0.793457, 4.333496, -2.868653
987662, -0.082642, 0.199707, 0.964478, 0.610352, -0.427246, -5.249023
987682, -0.092285, 0.198242, 0.968018, 1.037598, -1.953125, -6.347658
987702, -0.089966, 0.200684, 0.966064, -0.061035, -4.333496, 0.122070
987722, -0.083496, 0.201294, 0.968750, 0.061035, -4.760742, 0.305176
987742, -0.079834, 0.197998, 0.969116, 0.366211, -0.976563, -1.525879
987762, -0.086426, 0.200073, 0.968140, 0.305176, -1.159668, -0.122070
987782, -0.082397, 0.199341, 0.970093, 0.305176, -2.014160, 0.061035
987802, -0.081177, 0.199219, 0.961548, 0.427246, 0.549316, -0.305176
987822, -0.082397, 0.200195, 0.966431, 0.549316, -0.488281, -0.122070
987842, -0.083008, 0.199463, 0.966797, 0.671387, 3.112794, -0.854492
987862, -0.089600, 0.199585, 0.968262, 0.488281, -0.427246, -0.244141
987882, -0.082153, 0.200073, 0.969238, 0.488281, 0.732422, -0.427246
987902, -0.087891, 0.199951, 0.967285, 0.427246, 0.305176, -0.305176
987922, -0.085815, 0.199463, 0.968262, 0.366211, -0.305176, -0.244141
987942, -0.085938, 0.199829, 0.967896, 0.427246, 0.671387, -0.366211
987962, -0.087402, 0.198608, 0.963989, 0.366211, -0.183106, -0.244141
987982, -0.088379, 0.202271, 0.973633, 0.427246, 0.183106, -0.244141
988002, -0.088379, 0.198853, 0.963501, 0.244141, -1.403809, 0.000000
988022, -0.086792, 0.200195, 0.967773, 0.549316, 1.220703, -0.488281
988042, -0.089233, 0.197632, 0.962036, 0.366211, 0.000000, -0.305176
988062, -0.086060, 0.201904, 0.976807, 0.549316, 1.037598, -0.488281
988082, -0.092651, 0.200195, 0.963501, 0.305176, 1.159668, -0.671387
988102, -0.088013, 0.199585, 0.966431, 0.549316, 0.244141, -0.366211
988122, -0.088867, 0.199707, 0.967163, 0.671387, 2.380371, -0.793457
988142, -0.094482, 0.200928, 0.969360, 0.427246, 1.525879, -0.610352
988162, -0.087158, 0.200073, 0.966675, 0.732422, 2.136230, -0.671387
988182, -0.095703, 0.199707, 0.968750, 0.732422, 2.380371, -0.671387
988202, -0.094482, 0.199951, 0.965942, 0.671387, 1.342773, -0.488281
988222, -0.097778, 0.200439, 0.965088, 0.610352, 1.525879, -0.549316
988242, -0.093750, 0.200684, 0.967163, 0.061035, -3.601075, 0.183106
988262, -0.096191, 0.200806, 0.965576, 0.793457, 2.380371, -0.732422
988282, -0.100708, 0.199951, 0.965088, 0.061035, -3.906251, 0.366211
988302, -0.091797, 0.204712, 0.966797, 0.244141, -4.028320, -1.953125
988322, -0.087402, 0.193359, 0.970215, 0.549316, -3.417970, -5.493164
988342, -0.090820, 0.200317, 0.965820, 1.403809, -3.234864, -12.084965
988362, -0.093018, 0.209717, 0.966797, 1.770020, -6.713869, -16.052246
988382, -0.090088, 0.218140, 0.961548, 2.746582, -2.746582, -23.315437
988402, -0.085205, 0.179810, 0.980713, 1.586915, -8.056641, -18.310547
988422, -0.093628, 0.204346, 0.958008, 0.854492, -4.150391, -7.934572
988442, -0.094360, 0.199097, 0.970825, 0.427246, -0.061035, -0.671387
988462, -0.088013, 0.200439, 0.973755, 0.244141, -0.732422, -0.122070
988482, -0.092285, 0.198975, 0.967041, 0.549316, 0.732422, -0.366211
988502, -0.091675, 0.200806, 0.968750, 0.488281, -0.183106, -0.244141
988522, -0.092163, 0.199097, 0.963135, 0.427246, -0.549316, -0.183106
988542, -0.092529, 0.200195, 0.969482, 0.427246, -0.183106, -0.244141
988562, -0.091431, 0.199707, 0.965576, 0.366211, -0.915528, -0.122070
988582, -0.091187, 0.199829, 0.968628, 0.366211, -0.549316, -0.183106
988602, -0.090942, 0.199097, 0.966675, 0.366211, -0.671387, -0.122070
988622, -0.091797, 0.199829, 0.966797, 0.366211, -0.732422, -0.122070
988642, -0.091309, 0.200317, 0.966675, 0.366211, -0.549316, -0.183106
988662, -0.091187, 0.199707, 0.967651, 0.366211, -0.610352, -0.122070
988682, -0.091187, 0.200317, 0.967163, 0.366211, -0.610352, -0.183106
988702, -0.091064, 0.198730, 0.965942, 0.366211, -0.610352, -0.183106
988722, -0.092163, 0.199219, 0.967651, 0.366211, -0.671387, -0.183106
988742, -0.091675, 0.199585, 0.967285, 0.366211, -0.671387, -0.183106
988762, -0.091797, 0.198486, 0.966797, 0.366211, -0.732422, -0.122070
988782, -0.091797, 0.199463, 0.968384, 0.366211, -0.610352, -0.122070
988802, -0.091309, 0.200317, 0.967407, 0.366211, -0.671387, -0.183106
988822, -0.091309, 0.199097, 0.966675, 0.366211, -0.671387, -0.122070
988842, -0.091797, 0.199707, 0.967651, 0.366211, -0.671387, -0.122070
988862, -0.091675, 0.199829, 0.967529, 0.427246, -0.610352, -0.122070
988882, -0.091553, 0.199585, 0.966919, 0.366211, -0.610352, -0.122070
988902, -0.091553, 0.199463, 0.967773, 0.366211, -0.610352, -0.183106
988922, -0.091553, 0.199585, 0.966797, 0.366211, -0.671387, -0.122070
988942, -0.091553, 0.199341, 0.966919, 0.366211, -0.671387, -0.122070
988962, -0.091309, 0.199707, 0.967529, 0.366211, -0.671387, -0.183106
988982, -0.092773, 0.199951, 0.966919, 0.427246, -0.671387, -0.122070
989002, -0.092041, 0.198975, 0.967529, 0.366211, -0.671387, -0.122070
989022, -0.091797, 0.199097, 0.967407, 0.427246, -0.671387, -0.122070
989042, -0.091797, 0.199829, 0.967285, 0.366211, -0.610352, -0.183106
989062, -0.091431, 0.199463, 0.966553, 0.427246, -0.671387, -0.122070
989082, -0.091675, 0.199951, 0.966675, 0.427246, -0.671387, -0.183106
989102, -0.090698, 0.199707, 0.967041, 0.366211, -0.671387, -0.122070
989122, -0.091797, 0.199707, 0.967163, 0.366211, -0.671387, -0.122070
989142, -0.092529, 0.199341, 0.967163, 0.366211, -0.671387, -0.122070
989162, -0.092041, 0.198975, 0.967285, 0.366211, -0.610352, -0.122070
989182, -0.091187, 0.199585, 0.967407, 0.427246, -0.610352, -0.183106
989202, -0.092285, 0.199829, 0.966919, 0.366211, -0.671387, -0.122070
989222, -0.092407, 0.199951, 0.967285, 0.366211, -0.671387, -0.122070
989242, -0.092285, 0.199707, 0.965698, 0.427246, -0.610352, -0.183106
989262, -0.092285, 0.199585, 0.965576, 0.427246, -0.732422, -0.122070
989282, -0.091675, 0.200317, 0.970337, 0.366211, -0.671387, -0.183106
989302, -0.091675, 0.199951, 0.966797, 0.305176, -0.732422, -0.183106
989322, -0.091675, 0.199585, 0.967773, 0.427246, -0.671387, -0.122070
989342, -0.092041, 0.200195, 0.967407, 0.366211, -0.671387, -0.183106
989362, -0.091553, 0.199341, 0.966309, 0.427246, -0.671387, -0.183106
989382, -0.091797, 0.199463, 0.966431, 0.427246, -0.671387, -0.183106
989402, -0.091309, 0.199219, 0.967041, 0.427246, -0.610352, -0.183106
989422, -0.091919, 0.199585, 0.967285, 0.366211, -0.793457, -0.122070
989442, -0.092529, 0.199707, 0.967529, 0.427246, -0.610352, -0.183106
989462, -0.091187, 0.199951, 0.966797, 0.427246, -0.671387, -0.122070
989482, -0.091553, 0.200684, 0.968628, 0.366211, -0.671387, -0.183106
989502, -0.092285, 0.199585, 0.967041, 0.366211, -0.732422, -0.122070
989522, -0.092285, 0.199585, 0.966919, 0.366211, -0.732422, -0.122070
989542, -0.092041, 0.200562, 0.968750, 0.366211, -0.671387, -0.122070
989562, -0.092041, 0.199463, 0.966187, 0.366211, -0.671387, -0.122070
989582, -0.091309, 0.200806, 0.966919, 0.427246, -0.671387, -0.122070
989602, -0.092407, 0.199585, 0.966797, 0.427246, -0.732422, -0.122070
989622, -0.092773, 0.199585, 0.967163, 0.366211, -0.671387, -0.122070
989642, -0.092407, 0.198975, 0.966309, 0.427246, -0.671387, -0.122070
989662, -0.092041, 0.200073, 0.967896, 0.366211, -0.793457, -0.183106
989682, -0.091431, 0.200317, 0.968262, 0.427246, -0.610352, -0.183106
989702, -0.091675, 0.200317, 0.967041, 0.366211, -0.671387, -0.183106
989722, -0.091553, 0.200562, 0.966919, 0.366211, -0.732422, -0.183106
989742, -0.091797, 0.199707, 0.967896, 0.366211, -0.732422, -0.122070
989762, -0.092651, 0.200439, 0.966675, 0.366211, -0.732422, -0.183106
989782, -0.092163, 0.199707, 0.967529, 0.366211, -0.732422, -0.183106
989802, -0.092407, 0.199463, 0.966675, 0.427246, -0.671387, -0.122070
989822, -0.091919, 0.199463, 0.966309, 0.427246, -0.610352, -0.183106
989842, -0.092285, 0.200439, 0.967529, 0.366211, -0.610352, -0.183106
989862, -0.092651, 0.199341, 0.967041, 0.366211, -0.610352, -0.183106
989882, -0.091431, 0.200073, 0.967407, 0.366211, -0.671387, -0.122070
989902, -0.092041, 0.200195, 0.966064, 0.366211, -0.610352, -0.122070
989922, -0.091919, 0.199707, 0.967407, 0.366211, -0.671387, -0.122070
989942, -0.091553, 0.199707, 0.967041, 0.366211, -0.671387, -0.183106
989962, -0.091797, 0.199219, 0.967651, 0.366211, -0.671387, -0.122070
989982, -0.092163, 0.199707, 0.966797, 0.427246, -0.915528, -0.122070
990002, -0.092651, 0.199219, 0.968750, 0.366211, -0.610352, -0.183106
990022, -0.092041, 0.199707, 0.965576, 0.488281, -0.671387, -0.183106
990042, -0.092041, 0.200562, 0.968140, 0.366211, -0.488281, -0.183106
990062, -0.092285, 0.199097, 0.966553, 0.427246, -0.732422, -0.122070
990082, -0.092773, 0.199463, 0.966797, 0.427246, -0.732422, -0.122070
990102, -0.092896, 0.199097, 0.965454, 0.488281, -0.915528, -0.122070
990122, -0.091797, 0.201538, 0.973389, 0.366211, -0.488281, -0.183106
990142, -0.092529, 0.197998, 0.960571, 0.427246, -0.854492, -0.061035
990162, -0.092163, 0.200317, 0.972290, 0.366211, -0.610352, -0.183106
990182, -0.092529, 0.198730, 0.963013, 0.427246, -0.793457, -0.122070
990202, -0.092773, 0.200806, 0.970093, 0.366211, -0.610352, -0.122070
990222, -0.091919, 0.199097, 0.964233, 0.366211, -0.732422, -0.122070
990242, -0.092285, 0.200073, 0.969482, 0.366211, -0.671387, -0.183106
990262, -0.091919, 0.200317, 0.965942, 0.366211, -0.671387, -0.183106
990282, -0.091919, 0.200195, 0.967407, 0.366211, -0.671387, -0.183106
990302, -0.092407, 0.199707, 0.967163, 0.366211, -0.671387, -0.122070
990322, -0.092163, 0.199829, 0.966675, 0.366211, -0.671387, -0.122070
990342, -0.091675, 0.200073, 0.966309, 0.366211, -0.732422, -0.122070
990362, -0.092407, 0.199707, 0.966675, 0.366211, -0.610352, -0.183106
990382, -0.091675, 0.200073, 0.968384, 0.366211, -0.671387, -0.122070
990402, -0.092163, 0.199463, 0.965942, 0.366211, -0.671387, -0.183106
990422, -0.092651, 0.199219, 0.967529, 0.427246, -0.793457, -0.122070
990442, -0.092041, 0.199829, 0.967041, 0.427246, -0.610352, -0.183106
990462, -0.092285, 0.199707, 0.966797, 0.366211, -0.732422, -0.122070
990482, -0.091553, 0.199341, 0.966309, 0.366211, -0.671387, -0.183106
990502, -0.091919, 0.200073, 0.967773, 0.366211, -0.671387, -0.122070
990522, -0.092651, 0.200073, 0.966553, 0.366211, -0.671387, -0.183106
990542, -0.092651, 0.199951, 0.966797, 0.427246, -0.671387, -0.183106
990562, -0.092529, 0.200195, 0.966919, 0.366211, -0.793457, -0.122070
990582, -0.092896, 0.199951, 0.967285, 0.427246, -0.732422, -0.183106
990602, -0.091553, 0.200073, 0.967773, 0.366211, -0.671387, -0.183106
990622, -0.092529, 0.199463, 0.965454, 0.427246, -0.732422, -0.122070
990642, -0.092163, 0.200073, 0.968140, 0.366211, -0.610352, -0.183106
990662, -0.091309, 0.200195, 0.965942, 0.427246, -0.915528, -0.122070
990682, -0.091919, 0.199463, 0.962769, 0.366211, -0.732422, -0.183106
990702, -0.091797, 0.200562, 0.971069, 0.427246, -0.732422, -0.122070
990722, -0.092041, 0.200195, 0.966309, 0.366211, -0.671387, -0.122070
990742, -0.092041, 0.201416, 0.968506, 0.305176, -0.610352, -0.122070
990762, -0.092529, 0.200928, 0.967529, 0.305176, -0.549316, -0.244141
990782, -0.092163, 0.199829, 0.965454, 0.305176, -0.549316, -0.183106
990802, -0.092896, 0.200195, 0.967285, 0.427246, -0.549316, -0.183106
990822, -0.092773, 0.199951, 0.966797, 0.366211, -0.915528, -0.122070
990842, -0.092163, 0.199951, 0.967163, 0.366211, -0.427246, -0.244141
990862, -0.091309, 0.200195, 0.967651, 0.366211, -0.671387, -0.183106
990882, -0.092529, 0.200684, 0.966187, 0.366211, -0.488281, -0.183106
990902, -0.091919, 0.199585, 0.967285, 0.366211, -0.610352, -0.183106
990922, -0.091797, 0.199829, 0.966553, 0.366211, -0.610352, -0.122070
990942, -0.092163, 0.199951, 0.965210, 0.366211, -0.671387, -0.122070
990962, -0.092407, 0.200317, 0.967529, 0.427246, -0.671387, -0.122070
990982, -0.092407, 0.200195, 0.965332, 0.366211, -0.671387, -0.183106
991002, -0.092163, 0.199463, 0.968262, 0.427246, -0.671387, -0.183106
991022, -0.091553, 0.199341, 0.966187, 0.305176, -0.671387, -0.122070
991042, -0.092285, 0.199585, 0.967407, 0.366211, -0.610352, -0.183106
991062, -0.091431, 0.199829, 0.967285, 0.366211, -0.671387, -0.183106
991082, -0.092285, 0.199097, 0.966797, 0.427246, -0.671387, -0.183106
991102, -0.091797, 0.199707, 0.967163, 0.366211, -0.671387, -0.183106
991122, -0.092163, 0.199341, 0.966919, 0.366211, -0.671387, -0.122070
991142, -0.092529, 0.199829, 0.966919, 0.366211, -0.671387, -0.122070
991162, -0.091919, 0.199463, 0.967163, 0.366211, -0.732422, -0.122070
991182, -0.097412, 0.196289, 0.967773, 0.366211, -0.610352, -0.122070
991202, -0.083374, 0.211792, 0.967529, 1.342773, -2.075195, -0.183106
991222, -0.098999, 0.190430, 0.966675, -0.854492, 0.854492, -0.549316
991242, -0.092651, 0.205322, 0.988159, 0.549316, -0.732422, -0.122070
991262, -0.094604, 0.191772, 0.950684, -0.122070, 0.183106, -0.488281
991282, -0.090942, 0.203369, 0.978882, 0.183106, -0.305176, -0.305176
991302, -0.092896, 0.197876, 0.955933, 0.183106, -0.915528, -0.122070
991322, -0.092773, 0.203247, 0.975952, 0.427246, -0.427246, -0.183106
991342, -0.092163, 0.198486, 0.960815, 0.549316, -0.915528, -0.061035
991362, -0.092529, 0.202637, 0.973633, 0.366211, -0.671387, -0.122070
991382, -0.092651, 0.199707, 0.964478, 0.427246, -0.915528, -0.061035
991402, -0.094727, 0.200073, 0.966675, 0.244141, -0.671387, -0.183106
991422, -0.092773, 0.195923, 0.963623, 0.122070, -0.488281, -0.061035
991442, -0.092896, 0.199585, 0.968506, 0.244141, -0.671387, -0.183106
991462, -0.092896, 0.198486, 0.960815, 0.366211, -0.793457, -0.122070
991482, -0.093262, 0.199829, 0.969116, 0.366211, -0.610352, -0.183106
991502, -0.092041, 0.200317, 0.966797, 0.488281, -0.793457, -0.122070
991522, -0.090942, 0.202515, 0.973389, 0.549316, -0.793457, -0.122070
991542, -0.092163, 0.199097, 0.965210, 0.427246, -0.793457, -0.183106
991562, -0.093140, 0.199951, 0.968506, 0.305176, -0.671387, -0.183106
991582, -0.091797, 0.199707, 0.965088, 0.244141, -0.488281, -0.244141
991602, -0.092407, 0.199219, 0.969604, 0.305176, -0.488281, -0.244141
991622, -0.092896, 0.200806, 0.967407, 0.244141, -0.427246, -0.244141
991642, -0.093628, 0.199463, 0.966431, 0.244141, -0.427246, -0.183106
991662, -0.091675, 0.200195, 0.967896, 0.305176, -0.610352, -0.183106
991682, -0.093384, 0.199219, 0.966187, 0.305176, -0.671387, -0.183106
991702, -0.091675, 0.199341, 0.966797, 0.366211, -0.671387, -0.183106
991722, -0.093628, 0.200317, 0.966553, 0.305176, -0.671387, -0.122070
991742, -0.092163, 0.200439, 0.967041, 0.366211, -0.488281, -0.183106
991762, -0.093140, 0.200073, 0.966797, 0.305176, -0.610352, -0.183106
991782, -0.092285, 0.199951, 0.968384, 0.305176, -0.671387, -0.183106
991802, -0.091919, 0.199829, 0.966553, 0.366211, -0.610352, -0.183106
991822, -0.092285, 0.200195, 0.967773, 0.366211, -0.671387, -0.183106
991842, -0.092163, 0.199951, 0.966553, 0.366211, -0.732422, -0.183106
991862, -0.092529, 0.199463, 0.966675, 0.366211, -0.671387, -0.122070
991882, -0.092529, 0.199585, 0.967041, 0.366211, -0.671387, -0.122070
991902, -0.092773, 0.199585, 0.966919, 0.366211, -0.671387, -0.122070
991922, -0.092163, 0.199585, 0.967163, 0.366211, -0.671387, -0.183106
991942, -0.092407, 0.199585, 0.966431, 0.427246, -0.732422, -0.122070
991962, -0.092529, 0.199951, 0.967651, 0.427246, -0.732422, -0.122070
991982, -0.092285, 0.200195, 0.966309, 0.366211, -0.671387, -0.183106
992002, -0.092651, 0.199707, 0.967773, 0.366211, -0.671387, -0.122070
992022, -0.092285, 0.199585, 0.967041, 0.366211, -0.793457, -0.122070
992042, -0.091553, 0.200684, 0.967773, 0.366211, -0.549316, -0.183106
992062, -0.092773, 0.199341, 0.966797, 0.427246, -0.732422, -0.183106
992082, -0.093018, 0.199585, 0.967041, 0.366211, -0.610352, -0.122070
992102, -0.092041, 0.200562, 0.967041, 0.427246, -0.732422, -0.122070
992122, -0.092285, 0.199585, 0.966431, 0.366211, -0.671387, -0.183106
992142, -0.091919, 0.199951, 0.967163, 0.427246, -0.610352, -0.122070
992162, -0.092773, 0.199707, 0.966797, 0.427246, -0.671387, -0.122070
992182, -0.091675, 0.199951, 0.967651, 0.366211, -0.610352, -0.183106
992202, -0.092896, 0.199585, 0.967773, 0.427246, -0.671387, -0.122070
992222, -0.093018, 0.199463, 0.965820, 0.305176, -0.671387, -0.183106
992242, -0.091919, 0.200928, 0.967407, 0.427246, -0.732422, -0.122070
992262, -0.092773, 0.199829, 0.967407, 0.366211, -0.671387, -0.183106
992282, -0.092041, 0.199951, 0.968384, 0.366211, -0.671387, -0.183106
992302, -0.092773, 0.199585, 0.964966, 0.366211, -0.732422, -0.183106
992322, -0.093018, 0.200195, 0.967896, 0.427246, -0.671387, -0.183106
992342, -0.092896, 0.199951, 0.965454, 0.366211, -0.671387, -0.122070
992362, -0.092773, 0.200439, 0.967529, 0.427246, -0.671387, -0.122070
992382, -0.092041, 0.200195, 0.966797, 0.366211, -0.671387, -0.183106
992402, -0.091675, 0.200317, 0.966675, 0.427246, -0.732422, -0.122070
992422, -0.092529, 0.199341, 0.966553, 0.427246, -0.671387, -0.122070
992442, -0.092163, 0.199463, 0.967163, 0.366211, -0.671387, -0.183106
992462, -0.092773, 0.199463, 0.967041, 0.366211, -0.671387, -0.183106
992482, -0.093262, 0.199707, 0.967651, 0.366211, -0.671387, -0.183106
992502, -0.092407, 0.200195, 0.967529, 0.366211, -0.671387, -0.122070
992522, -0.092041, 0.199707, 0.966919, 0.366211, -0.671387, -0.122070
992542, -0.092896, 0.200562, 0.967041, 0.366211, -0.671387, -0.183106
992562, -0.092407, 0.199951, 0.966553, 0.366211, -0.671387, -0.183106
992582, -0.093140, 0.199097, 0.966919, 0.366211, -0.915528, -0.122070
992602, -0.092773, 0.199707, 0.967285, 0.427246, -0.549316, -0.183106
992622, -0.092896, 0.200073, 0.966553, 0.366211, -0.671387, -0.122070
992642, -0.092407, 0.199707, 0.968140, 0.366211, -0.732422, -0.122070
992662, -0.092285, 0.199707, 0.966675, 0.366211, -0.671387, -0.122070
992682, -0.092529, 0.199829, 0.967529, 0.366211, -0.671387, -0.183106
992702, -0.092651, 0.199097, 0.967163, 0.366211, -0.671387, -0.183106
992722, -0.091797, 0.199585, 0.967163, 0.366211, -0.671387, -0.122070
992742, -0.092651, 0.200195, 0.967163, 0.366211, -0.732422, -0.122070
992762, -0.092529, 0.199951, 0.967529, 0.427246, -0.671387, -0.122070
992782, -0.092529, 0.200073, 0.966919, 0.427246, -0.671387, -0.183106
992802, -0.093018, 0.199707, 0.966919, 0.427246, -0.671387, -0.122070
992822, -0.092896, 0.200439, 0.967163, 0.427246, -0.671387, -0.122070
992842, -0.092407, 0.200195, 0.967285, 0.366211, -0.671387, -0.122070
992862, -0.092407, 0.199463, 0.967041, 0.366211, -0.671387, -0.122070
992882, -0.092163, 0.199463, 0.966553, 0.366211, -0.671387, -0.183106
992902, -0.092651, 0.200195, 0.967651, 0.366211, -0.671387, -0.183106
992922, -0.092773, 0.200195, 0.966797, 0.366211, -0.732422, -0.183106
992942, -0.093018, 0.200317, 0.967041, 0.366211, -0.671387, -0.122070
992962, -0.092896, 0.199707, 0.966553, 0.427246, -0.671387, -0.183106
992982, -0.092285, 0.200317, 0.966675, 0.366211, -0.732422, -0.183106
993002, -0.091553, 0.199829, 0.966797, 0.366211, -0.671387, -0.122070
993022, -0.092651, 0.199463, 0.968262, 0.427246, -0.671387, -0.183106
993042, -0.091797, 0.200439, 0.967285, 0.427246, -0.671387, -0.183106
993062, -0.093140, 0.199951, 0.966553, 0.366211, -0.671387, -0.183106
993082, -0.092041, 0.199951, 0.966675, 0.366211, -0.610352, -0.183106
993102, -0.092896, 0.199829, 0.966797, 0.366211, -0.671387, -0.183106
993122, -0.092651, 0.199707, 0.966797, 0.366211, -0.671387, -0.122070
993142, -0.092163, 0.199097, 0.967163, 0.366211, -0.732422, -0.183106
993162, -0.093018, 0.200317, 0.966553, 0.366211, -0.671387, -0.122070
993182, -0.092163, 0.200073, 0.966309, 0.366211, -0.671387, -0.122070
993202, -0.092285, 0.200195, 0.966553, 0.366211, -0.671387, -0.122070
993222, -0.093018, 0.200195, 0.967529, 0.366211, -0.671387, -0.183106
993242, -0.092529, 0.200073, 0.967041, 0.366211, -0.671387, -0.183106
993262, -0.092773, 0.199707, 0.967529, 0.366211, -0.671387, -0.183106
993282, -0.093506, 0.200439, 0.966553, 0.305176, -0.610352, -0.183106
993302, -0.091919, 0.200195, 0.967651, 0.427246, -0.671387, -0.183106
993322, -0.092651, 0.199585, 0.966553, 0.427246, -0.671387, -0.122070
993342, -0.093262, 0.199951, 0.966064, 0.366211, -0.671387, -0.122070
993362, -0.092896, 0.200073, 0.967041, 0.366211, -0.671387, -0.122070
993382, -0.093628, 0.200684, 0.966064, 0.366211, -0.610352, -0.183106
993402, -0.092651, 0.199097, 0.966187, 0.366211, -0.732422, -0.183106
993422, -0.091187, 0.199707, 0.966919, 0.427246, -0.732422, -0.122070
993442, -0.091675, 0.199707, 0.967041, 0.366211, -0.671387, -0.183106
993462, -0.092773, 0.200562, 0.967163, 0.366211, -0.732422, -0.183106
993482, -0.092529, 0.199707, 0.967163, 0.427246, -0.732422, -0.122070
993502, -0.092651, 0.200195, 0.967041, 0.427246, -0.671387, -0.183106
993522, -0.092285, 0.199463, 0.967407, 0.427246, -0.671387, -0.122070
993542, -0.093140, 0.200195, 0.966919, 0.366211, -0.610352, -0.122070
993562, -0.092773, 0.200073, 0.966919, 0.366211, -0.671387, -0.122070
993582, -0.092285, 0.200317, 0.966187, 0.366211, -0.671387, -0.122070
993602, -0.092896, 0.200195, 0.967285, 0.366211, -0.732422, -0.122070
993622, -0.093018, 0.200317, 0.967285, 0.366211, -0.732422, -0.183106
993642, -0.093628, 0.199341, 0.966553, 0.366211, -0.671387, -0.183106
993662, -0.092041, 0.200439, 0.967163, 0.366211, -0.671387, -0.122070
993682, -0.092896, 0.200073, 0.965942, 0.366211, -0.732422, -0.122070
993703, -0.091919, 0.199463, 0.967041, 0.366211, -0.732422, -0.183106
993723, -0.093018, 0.200317, 0.967651, 0.366211, -0.671387, -0.122070
993743, -0.092773, 0.200195, 0.966797, 0.366211, -0.671387, -0.122070
993763, -0.091797, 0.199707, 0.967407, 0.366211, -0.732422, -0.183106
993783, -0.093140, 0.199707, 0.967285, 0.366211, -0.671387, -0.183106
993803, -0.092529, 0.200684, 0.967163, 0.427246, -0.732422, -0.122070
993823, -0.092651, 0.199707, 0.966797, 0.427246, -0.732422, -0.122070
993843, -0.093262, 0.200439, 0.967285, 0.366211, -0.671387, -0.122070
993863, -0.092651, 0.200806, 0.967285, 0.366211, -0.671387, -0.122070
993883, -0.091797, 0.200073, 0.966919, 0.366211, -0.732422, -0.183106
993903, -0.092407, 0.200562, 0.967773, 0.366211, -0.671387, -0.183106
993923, -0.092529, 0.199707, 0.967529, 0.366211, -0.793457, -0.122070
993943, -0.093140, 0.200195, 0.966431, 0.366211, -0.793457, -0.122070
993963, -0.091797, 0.199829, 0.967163, 0.366211, -0.610352, -0.183106
993983, -0.093140, 0.200684, 0.968262, 0.366211, -0.610352, -0.183106
994003, -0.093140, 0.199097, 0.966309, 0.427246, -0.732422, -0.122070
994023, -0.092896, 0.200195, 0.967651, 0.366211, -0.671387, -0.122070
994043, -0.092651, 0.199219, 0.966187, 0.427246, -0.732422, -0.122070
994063, -0.092773, 0.199951, 0.967407, 0.427246, -0.732422, -0.183106
994083, -0.093018, 0.200562, 0.967896, 0.366211, -0.732422, -0.183106
994103, -0.092163, 0.200195, 0.967896, 0.366211, -0.732422, -0.122070
994123, -0.092529, 0.199097, 0.966064, 0.366211, -0.732422, -0.183106
994143, -0.092163, 0.200439, 0.967285, 0.366211, -0.671387, -0.183106
994163, -0.092285, 0.199829, 0.966919, 0.366211, -0.732422, -0.183106
994183, -0.092773, 0.200317, 0.968384, 0.366211, -0.732422, -0.122070
994203, -0.092896, 0.200073, 0.966309, 0.366211, -0.671387, -0.122070
994223, -0.092773, 0.199585, 0.967529, 0.366211, -0.671387, -0.183106
994243, -0.091187, 0.199829, 0.967407, 0.427246, -0.732422, -0.122070
994263, -0.092651, 0.199585, 0.967163, 0.366211, -0.671387, -0.183106
994283, -0.093018, 0.200317, 0.966675, 0.366211, -0.671387, -0.122070
994303, -0.093018, 0.200195, 0.967285, 0.427246, -0.671387, -0.122070
994323, -0.092651, 0.200562, 0.967041, 0.427246, -0.732422, -0.122070
994343, -0.093140, 0.199341, 0.967407, 0.427246, -0.671387, -0.122070
994363, -0.092651, 0.200073, 0.966919, 0.366211, -0.732422, -0.122070
994383, -0.092651, 0.199829, 0.967285, 0.305176, -0.732422, -0.183106
994403, -0.092773, 0.199707, 0.965820, 0.366211, -0.671387, -0.122070
994423, -0.092651, 0.200562, 0.967529, 0.305176, -0.671387, -0.122070
994443, -0.092773, 0.201050, 0.968018, 0.366211, -0.671387, -0.122070
994463, -0.093262, 0.200317, 0.967529, 0.366211, -0.732422, -0.183106
994483, -0.093018, 0.200317, 0.966797, 0.427246, -0.671387, -0.183106
994503, -0.092773, 0.199951, 0.966675, 0.366211, -0.732422, -0.122070
994523, -0.092407, 0.200317, 0.967163, 0.366211, -0.671387, -0.122070
994543, -0.092773, 0.200195, 0.966919, 0.366211, -0.732422, -0.183106
994563, -0.093018, 0.200317, 0.967041, 0.366211, -0.671387, -0.183106
994583, -0.093018, 0.199829, 0.967163, 0.366211, -0.671387, -0.122070
994603, -0.092896, 0.199585, 0.966797, 0.427246, -0.671387, -0.183106
994623, -0.092285, 0.200073, 0.967407, 0.366211, -0.671387, -0.122070
994643, -0.093018, 0.198853, 0.967407, 0.366211, -0.671387, -0.122070
994663, -0.093384, 0.200195, 0.967285, 0.366211, -0.671387, -0.122070
994683, -0.093384, 0.200684, 0.966431, 0.366211, -0.671387, -0.122070
994703, -0.092285, 0.199097, 0.966187, 0.366211, -0.732422, -0.122070
994723, -0.092529, 0.199829, 0.968262, 0.366211, -0.732422, -0.122070
994743, -0.092651, 0.200195, 0.966187, 0.366211, -0.671387, -0.122070
994763, -0.093018, 0.200195, 0.967896, 0.366211, -0.671387, -0.122070
994783, -0.092773, 0.199829, 0.966187, 0.366211, -0.732422, -0.183106
994803, -0.093262, 0.200439, 0.967773, 0.366211, -0.671387, -0.122070
994823, -0.092041, 0.199951, 0.966675, 0.366211, -0.732422, -0.122070
994843, -0.093384, 0.200439, 0.966919, 0.366211, -0.671387, -0.122070
994863, -0.092163, 0.199585, 0.967285, 0.366211, -0.671387, -0.122070
994883, -0.093018, 0.200317, 0.968262, 0.366211, -0.671387, -0.122070
994903, -0.092651, 0.200439, 0.966797, 0.427246, -0.793457, -0.122070
994923, -0.093140, 0.199219, 0.965088, 0.305176, -0.671387, -0.183106
994943, -0.093262, 0.200806, 0.968140, 0.427246, -0.671387, -0.122070
994963, -0.092651, 0.199585, 0.966064, 0.366211, -0.671387, -0.183106
994983, -0.092041, 0.199707, 0.968140, 0.366211, -0.671387, -0.122070
995003, -0.092651, 0.200073, 0.966797, 0.366211, -0.671387, -0.183106
995023, -0.092773, 0.200684, 0.968018, 0.366211, -0.671387, -0.183106
995043, -0.093628, 0.199951, 0.965942, 0.427246, -0.732422, -0.183106
995063, -0.092285, 0.200073, 0.967773, 0.366211, -0.610352, -0.183106
995083, -0.092285, 0.199951, 0.965454, 0.366211, -0.671387, -0.183106
995103, -0.092651, 0.200195, 0.967773, 0.366211, -0.610352, -0.183106
995123, -0.093750, 0.199585, 0.965820, 0.366211, -0.671387, -0.183106
995143, -0.093262, 0.200439, 0.968262, 0.366211, -0.671387, -0.183106
995163, -0.092651, 0.199097, 0.966919, 0.366211, -0.732422, -0.122070
995183, -0.093384, 0.199463, 0.967896, 0.427246, -0.671387, -0.122070
995203, -0.092407, 0.200195, 0.966309, 0.366211, -0.671387, -0.122070
995223, -0.092529, 0.200684, 0.967773, 0.366211, -0.610352, -0.183106
995243, -0.093140, 0.200073, 0.966431, 0.366211, -0.671387, -0.183106
995263, -0.093384, 0.199463, 0.967285, 0.427246, -0.732422, -0.122070
995283, -0.093018, 0.200073, 0.967285, 0.366211, -0.610352, -0.183106
995303, -0.092651, 0.199707, 0.967163, 0.366211, -0.732422, -0.122070
995323, -0.092163, 0.199829, 0.966797, 0.366211, -0.732422, -0.122070
995343, -0.092285, 0.200439, 0.967407, 0.366211, -0.671387, -0.122070
995363, -0.093262, 0.199951, 0.965820, 0.366211, -0.732422, -0.122070
995383, -0.092651, 0.200195, 0.967163, 0.427246, -0.732422, -0.122070
995403, -0.092773, 0.199707, 0.966553, 0.366211, -0.671387, -0.183106
995423, -0.092896, 0.199951, 0.967651, 0.366211, -0.671387, -0.183106
995443, -0.092529, 0.199341, 0.965942, 0.366211, -0.671387, -0.183106
995463, -0.092896, 0.199463, 0.967651, 0.427246, -0.671387, -0.122070
995483, -0.094116, 0.200073, 0.966675, 0.366211, -0.732422, -0.183106
995503, -0.092773, 0.200317, 0.966919, 0.366211, -0.732422, -0.122070
995523, -0.092896, 0.199829, 0.966431, 0.366211, -0.671387, -0.183106
995543, -0.093628, 0.199829, 0.967285, 0.366211, -0.671387, -0.183106
995563, -0.092773, 0.200073, 0.966064, 0.366211, -0.671387, -0.122070
995583, -0.092529, 0.200073, 0.966919, 0.366211, -0.671387, -0.122070
995603, -0.092163, 0.200806, 0.966553, 0.366211, -0.671387, -0.183106
995623, -0.093018, 0.199463, 0.967041, 0.366211, -0.671387, -0.183106
995643, -0.092651, 0.199707, 0.967163, 0.427246, -0.671387, -0.122070
995663, -0.092285, 0.199463, 0.965576, 0.427246, -0.671387, -0.183106
995683, -0.092041, 0.199951, 0.967896, 0.427246, -0.671387, -0.122070
995703, -0.093018, 0.199585, 0.966919, 0.427246, -0.671387, -0.183106
995723, -0.093262, 0.200073, 0.966187, 0.366211, -0.671387, -0.122070
995743, -0.092651, 0.199951, 0.966919, 0.366211, -0.732422, -0.183106
995763, -0.093140, 0.199951, 0.967163, 0.427246, -0.671387, -0.183106
995783, -0.093018, 0.199585, 0.967407, 0.366211, -0.671387, -0.183106
995803, -0.092773, 0.199829, 0.967041, 0.427246, -0.671387, -0.183106
995823, -0.093872, 0.199707, 0.966919, 0.366211, -0.671387, -0.183106
995843, -0.092285, 0.199585, 0.966919, 0.427246, -0.671387, -0.122070
995863, -0.092651, 0.200073, 0.966309, 0.366211, -0.671387, -0.183106
995883, -0.091553, 0.200317, 0.967407, 0.427246, -0.671387, -0.183106
995903, -0.092529, 0.199951, 0.967285, 0.366211, -0.671387, -0.122070
995923, -0.092896, 0.199829, 0.966797, 0.366211, -0.732422, -0.122070
995943, -0.092285, 0.199829, 0.966919, 0.427246, -0.671387, -0.183106
995963, -0.092651, 0.200073, 0.967041, 0.366211, -0.671387, -0.183106
995983, -0.092651, 0.199829, 0.967407, 0.366211, -0.732422, -0.122070
996003, -0.092285, 0.199707, 0.967407, 0.366211, -0.671387, -0.122070
996023, -0.093506, 0.200073, 0.967773, 0.366211, -0.671387, -0.122070
996043, -0.093018, 0.199097, 0.967041, 0.366211, -0.671387, -0.122070
996063, -0.092407, 0.199951, 0.966797, 0.305176, -0.671387, -0.183106
996083, -0.093262, 0.199951, 0.968140, 0.366211, -0.671387, -0.122070
996103, -0.092041, 0.200317, 0.966064, 0.366211, -0.671387, -0.183106
996123, -0.092285, 0.199951, 0.967773, 0.366211, -0.671387, -0.183106
996143, -0.092041, 0.199829, 0.966675, 0.366211, -0.671387, -0.122070
996163, -0.092651, 0.199585, 0.966675, 0.366211, -0.671387, -0.183106
996183, -0.093140, 0.199951, 0.967407, 0.366211, -0.732422, -0.183106
996203, -0.092285, 0.199829, 0.966919, 0.366211, -0.671387, -0.122070
996223, -0.093628, 0.200073, 0.966797, 0.366211, -0.732422, -0.183106
996243, -0.092896, 0.199341, 0.967163, 0.366211, -0.671387, -0.183106
996263, -0.093262, 0.200317, 0.966309, 0.366211, -0.671387, -0.183106
996283, -0.092773, 0.199219, 0.967285, 0.427246, -0.671387, -0.183106
996303, -0.093262, 0.199585, 0.967773, 0.366211, -0.671387, -0.183106
996323, -0.093018, 0.199219, 0.967041, 0.366211, -0.732422, -0.183106
996343, -0.092651, 0.199951, 0.966187, 0.427246, -0.732422, -0.122070
996363, -0.093018, 0.199707, 0.968018, 0.427246, -0.732422, -0.122070
996383, -0.092651, 0.199463, 0.966675, 0.427246, -0.732422, -0.122070
996403, -0.092651, 0.200439, 0.967163, 0.366211, -0.671387, -0.122070
996423, -0.092896, 0.199707, 0.966919, 0.366211, -0.671387, -0.122070
996443, -0.092285, 0.199341, 0.967041, 0.366211, -0.732422, -0.122070
996463, -0.093262, 0.200317, 0.967407, 0.366211, -0.732422, -0.183106
996483, -0.092285, 0.199951, 0.966919, 0.366211, -0.671387, -0.183106
996503, -0.092651, 0.199829, 0.967163, 0.366211, -0.610352, -0.122070
996523, -0.092651, 0.199951, 0.966553, 0.366211, -0.732422, -0.183106
996543, -0.092529, 0.200684, 0.966919, 0.366211, -0.671387, -0.122070
996563, -0.092407, 0.199585, 0.967407, 0.366211, -0.671387, -0.122070
996583, -0.092285, 0.199951, 0.967041, 0.366211, -0.671387, -0.183106
996603, -0.092651, 0.199829, 0.966919, 0.366211, -0.732422, -0.183106
996623, -0.093262, 0.200317, 0.967407, 0.366211, -0.732422, -0.183106
996643, -0.093262, 0.199829, 0.967163, 0.366211, -0.671387, -0.122070
996663, -0.092407, 0.199829, 0.967529, 0.366211, -0.732422, -0.122070
996683, -0.092285, 0.199341, 0.967651, 0.366211, -0.671387, -0.183106
996703, -0.092651, 0.199951, 0.967285, 0.366211, -0.671387, -0.122070
996723, -0.092529, 0.200439, 0.966431, 0.366211, -0.732422, -0.183106
996743, -0.092896, 0.199585, 0.966919, 0.427246, -0.732422, -0.183106
996763, -0.092773, 0.199707, 0.966797, 0.366211, -0.671387, -0.122070
996783, -0.091797, 0.199829, 0.968140, 0.366211, -0.671387, -0.122070
996803, -0.092896, 0.200073, 0.966675, 0.366211, -0.610352, -0.183106
996823, -0.091919, 0.200439, 0.967163, 0.366211, -0.671387, -0.122070
996843, -0.091919, 0.200317, 0.967041, 0.366211, -0.732422, -0.183106
996863, -0.092407, 0.199951, 0.967529, 0.366211, -0.732422, -0.122070
996883, -0.092529, 0.199707, 0.966919, 0.366211, -0.671387, -0.183106
996903, -0.092285, 0.199585, 0.967651, 0.427246, -0.732422, -0.122070
996923, -0.093262, 0.199707, 0.967041, 0.366211, -0.671387, -0.183106
996943, -0.091797, 0.199097, 0.967529, 0.366211, -0.671387, -0.183106
996963, -0.092896, 0.200195, 0.967896, 0.427246, -0.732422, -0.122070
996983, -0.092773, 0.200195, 0.967041, 0.366211, -0.732422, -0.122070
997003, -0.092407, 0.199341, 0.967041, 0.366211, -0.671387, -0.122070
997023, -0.092407, 0.200317, 0.967041, 0.366211, -0.671387, -0.122070
997043, -0.091553, 0.199463, 0.967407, 0.366211, -0.732422, -0.122070
997063, -0.093018, 0.199951, 0.967041, 0.366211, -0.732422, -0.183106
997083, -0.092407, 0.200317, 0.967407, 0.366211, -0.732422, -0.183106
997103, -0.093018, 0.199829, 0.966675, 0.366211, -0.732422, -0.183106
997123, -0.092773, 0.200439, 0.967407, 0.427246, -0.671387, -0.122070
997143, -0.093506, 0.199219, 0.967285, 0.366211, -0.732422, -0.122070
997163, -0.092896, 0.200073, 0.967285, 0.366211, -0.671387, -0.122070
997183, -0.092651, 0.199219, 0.966797, 0.366211, -0.671387, -0.122070
997203, -0.092896, 0.200073, 0.967529, 0.366211, -0.671387, -0.183106
997223, -0.092651, 0.200195, 0.966553, 0.366211, -0.671387, -0.183106
997243, -0.093384, 0.199707, 0.967529, 0.366211, -0.671387, -0.122070
997263, -0.093262, 0.199951, 0.967285, 0.427246, -0.671387, -0.122070
997283, -0.063354, 0.210571, 0.988770, 0.915528, 3.295899, -1.403809
997303, -0.017090, 0.323853, 1.007080, 15.930180, 27.099617, -73.913574
997323, -0.103394, 0.293457, 0.935791, 27.160652, 26.306160, -138.244629
997343, -0.189331, 0.239014, 0.867065, 28.259285, -16.235352, -175.720215
997363, -0.209473, 0.188965, 0.879761, 29.052742, -60.607925, -182.617249
997383, -0.176758, 0.176270, 0.921631, 23.620613, -90.759308, -167.602539
997403, -0.084473, 0.151978, 1.091919, 14.160160, -79.467773, -143.493652
997423, -0.059692, 0.133423, 0.987305, 18.249512, -3.906251, -113.037140
997443, -0.158447, 0.109741, 0.948608, 8.911133, -12.451176, -52.978531
997463, -0.100220, 0.156616, 0.995850, -0.061035, -9.033203, 0.000000
997483, -0.127808, 0.203491, 0.947510, 0.122070, -0.122070, 6.530764
997503, -0.101685, 0.218140, 0.971924, 0.061035, -0.366211, 4.455566
997523, -0.117798, 0.209717, 0.956299, 0.854492, 0.793457, -0.366211
997543, -0.108765, 0.208618, 0.965820, 0.000000, -3.051759, 0.244141
997563, -0.115234, 0.207275, 0.960083, 0.427246, -2.441406, 0.183106
997583, -0.105957, 0.208252, 0.968506, 0.305176, -0.915528, -0.122070
997603, -0.112549, 0.207764, 0.962646, 0.793457, 0.488281, -0.305176
997623, -0.109619, 0.208130, 0.964722, 0.610352, 0.549316, -0.366211
997643, -0.114380, 0.207642, 0.960205, 0.610352, -0.244141, -0.183106
997663, -0.110962, 0.208008, 0.964600, 0.488281, -0.549316, -0.183106
997683, -0.112549, 0.207275, 0.962402, 0.427246, -0.915528, -0.122070
997703, -0.112305, 0.208618, 0.963989, 0.488281, -0.915528, -0.061035
997723, -0.111694, 0.208618, 0.963623, 0.488281, -0.671387, -0.122070
997743, -0.112183, 0.208496, 0.963257, 0.549316, -0.610352, -0.183106
997763, -0.111938, 0.208130, 0.962891, 0.549316, -0.549316, -0.183106
997783, -0.111206, 0.208130, 0.962769, 0.488281, -0.549316, -0.122070
997803, -0.112305, 0.208130, 0.963623, 0.549316, -0.671387, -0.122070
997823, -0.112305, 0.208496, 0.962769, 0.427246, -0.732422, -0.122070
997843, -0.112793, 0.208130, 0.963135, 0.488281, -0.671387, -0.122070
997863, -0.111694, 0.208496, 0.963379, 0.488281, -0.671387, -0.122070
997883, -0.112427, 0.207520, 0.961914, 0.427246, -0.488281, -0.122070
997903, -0.112793, 0.208740, 0.963989, 0.488281, -0.854492, -0.061035
997923, -0.112427, 0.209106, 0.962524, 0.366211, -0.427246, -0.183106
997943, -0.112305, 0.209351, 0.963745, 0.427246, -0.915528, -0.061035
997963, -0.111694, 0.208252, 0.962280, 0.427246, -0.549316, -0.122070
997983, -0.112305, 0.208862, 0.963623, 0.427246, -0.915528, -0.061035
998003, -0.111938, 0.208374, 0.963013, 0.427246, -0.549316, -0.122070
998023, -0.112305, 0.208618, 0.962646, 0.427246, -0.793457, -0.122070
998043, -0.112305, 0.208618, 0.963013, 0.427246, -0.610352, -0.183106
998063, -0.112305, 0.209595, 0.963501, 0.427246, -0.732422, -0.122070
998083, -0.112793, 0.209595, 0.961792, 0.427246, -0.671387, -0.183106
998103, -0.112427, 0.208740, 0.961670, 0.427246, -0.671387, -0.183106
998123, -0.113037, 0.209473, 0.966431, 0.427246, -0.976563, -0.122070
998143, -0.111694, 0.207764, 0.958252, 0.305176, -0.183106, -0.244141
998163, -0.111450, 0.211060, 0.968262, 0.427246, -1.342773, -0.061035
998183, -0.112793, 0.207642, 0.961426, 0.427246, -0.244141, -0.244141
998203, -0.112427, 0.209229, 0.963135, 0.366211, -1.037598, -0.122070
998223, -0.111816, 0.208252, 0.961792, 0.488281, -0.427246, -0.183106
998243, -0.111694, 0.208496, 0.962769, 0.427246, -0.549316, -0.183106
998263, -0.111450, 0.209351, 0.964111, 0.427246, -0.854492, -0.122070
998283, -0.112061, 0.209229, 0.962158, 0.427246, -0.610352, -0.183106
998303, -0.112305, 0.209106, 0.963623, 0.427246, -0.793457, -0.122070
998323, -0.111816, 0.209351, 0.963257, 0.427246, -0.549316, -0.183106
998343, -0.112427, 0.209839, 0.961304, 0.366211, -0.793457, -0.122070
998363, -0.112671, 0.208496, 0.964478, 0.488281, -0.671387, -0.122070
998383, -0.111938, 0.208618, 0.961060, 0.366211, -0.671387, -0.122070
998403, -0.111694, 0.209473, 0.963623, 0.427246, -0.732422, -0.122070
998423, -0.112305, 0.208862, 0.960327, 0.427246, -0.610352, -0.122070
998443, -0.110962, 0.209351, 0.962158, 0.366211, -0.549316, -0.183106
998483, -0.111206, 0.209473, 0.964233, 0.427246, -0.549316, -0.183106
998503, -0.112305, 0.209229, 0.961426, 0.366211, -0.793457, -0.122070
998523, -0.112183, 0.209595, 0.962891, 0.427246, -0.610352, -0.183106
998543, -0.112061, 0.209595, 0.963867, 0.427246, -0.793457, -0.122070
998563, -0.112305, 0.209229, 0.961792, 0.427246, -0.671387, -0.122070
998583, -0.112549, 0.209595, 0.963623, 0.366211, -0.671387, -0.122070
998603, -0.112793, 0.209595, 0.962280, 0.427246, -0.732422, -0.183106
998623, -0.110840, 0.209106, 0.961426, 0.427246, -0.671387, -0.122070
998643, -0.112183, 0.208496, 0.963257, 0.427246, -0.732422, -0.122070
998663, -0.112305, 0.209106, 0.963135, 0.427246, -0.671387, -0.122070
998683, -0.112061, 0.209351, 0.963745, 0.366211, -0.732422, -0.183106
998703, -0.111328, 0.209839, 0.963135, 0.427246, -0.671387, -0.122070
998723, -0.112671, 0.209106, 0.963623, 0.366211, -0.732422, -0.122070
998743, -0.112671, 0.209473, 0.963501, 0.366211, -0.610352, -0.183106
998763, -0.111816, 0.210327, 0.962036, 0.366211, -0.732422, -0.183106
998783, -0.109131, 0.201172, 0.920898, 0.366211, -0.793457, -0.122070
998803, -0.112671, 0.226318, 1.047974, 0.610352, -1.342773, 0.000000
998823, -0.116089, 0.212891, 0.983521, -0.122070, -5.432129, 0.610352
998843, -0.111694, 0.208984, 0.957153, 0.854492, 2.441406, -0.671387
998863, -0.111084, 0.209717, 0.963257, 0.000000, -2.990724, 0.244141
998883, -0.112671, 0.209473, 0.963135, 0.732422, 0.732422, -0.305176
998903, -0.110718, 0.209473, 0.961548, 0.244141, -1.647950, 0.000000
998923, -0.112671, 0.209717, 0.965576, 0.549316, 0.000000, -0.305176
998943, -0.112061, 0.208740, 0.959473, 0.305176, -1.220703, -0.061035
998963, -0.111816, 0.209961, 0.964966, 0.488281, -0.427246, -0.183106
998983, -0.111816, 0.208374, 0.961182, 0.366211, -0.976563, -0.122070
999003, -0.112427, 0.210205, 0.961670, 0.427246, -0.671387, -0.183106
999023, -0.111694, 0.209961, 0.963745, 0.366211, -0.732422, -0.122070
999043, -0.111450, 0.209473, 0.963379, 0.427246, -0.732422, -0.183106
999063, -0.111084, 0.209106, 0.963135, 0.366211, -0.671387, -0.122070
999083, -0.111694, 0.210083, 0.963013, 0.427246, -0.671387, -0.122070
999103, -0.112305, 0.209106, 0.962402, 0.366211, -0.671387, -0.183106
999123, -0.111450, 0.210205, 0.963135, 0.427246, -0.732422, -0.122070
999143, -0.111206, 0.208862, 0.962769, 0.366211, -0.671387, -0.122070
999163, -0.111328, 0.210083, 0.963745, 0.427246, -0.732422, -0.122070
999183, -0.111938, 0.210205, 0.963867, 0.366211, -0.732422, -0.122070
999203, -0.111206, 0.209351, 0.960571, 0.366211, -0.610352, -0.183106
999223, -0.111938, 0.209961, 0.963013, 0.366211, -0.732422, -0.183106
999243, -0.111938, 0.209473, 0.962158, 0.427246, -0.610352, -0.183106
999263, -0.111694, 0.209595, 0.963257, 0.366211, -0.732422, -0.183106
999283, -0.110962, 0.209106, 0.960571, 0.427246, -0.671387, -0.122070
999303, -0.111572, 0.209961, 0.963623, 0.427246, -0.854492, -0.122070
999323, -0.111572, 0.210815, 0.963135, 0.427246, -0.732422, -0.122070
999343, -0.111450, 0.209961, 0.964233, 0.366211, -0.732422, -0.122070
999363, -0.111450, 0.209229, 0.962891, 0.427246, -0.671387, -0.122070
999383, -0.112305, 0.210083, 0.964111, 0.366211, -0.671387, -0.122070
999403, -0.111328, 0.209961, 0.963013, 0.366211, -0.671387, -0.122070
999423, -0.111694, 0.209229, 0.962158, 0.427246, -0.671387, -0.122070
999443, -0.111816, 0.210083, 0.964111, 0.366211, -0.610352, -0.183106
999463, -0.112061, 0.208862, 0.958618, 0.366211, -0.793457, -0.122070
999483, -0.111450, 0.210083, 0.964722, 0.366211, -0.671387, -0.183106
999503, -0.112183, 0.209106, 0.963257, 0.366211, -0.793457, -0.122070
999523, -0.111938, 0.208618, 0.962158, 0.427246, -0.610352, -0.122070
999543, -0.111206, 0.209473, 0.962891, 0.366211, -0.793457, -0.183106
999563, -0.112183, 0.209961, 0.962524, 0.366211, -0.671387, -0.122070
999583, -0.112061, 0.210449, 0.963745, 0.366211, -0.793457, -0.122070
999603, -0.111816, 0.209717, 0.961670, 0.427246, -0.732422, -0.122070
999623, -0.111328, 0.209717, 0.963623, 0.366211, -0.793457, -0.122070
999643, -0.112061, 0.211548, 0.963013, 0.305176, -0.671387, -0.183106
999663, -0.110596, 0.209839, 0.967285, 1.281738, -0.732422, 0.000000
999683, -0.112793, 0.208984, 0.960938, -0.427246, -0.610352, -0.244141
999703, -0.111084, 0.210327, 0.960449, 0.854492, -0.732422, -0.122070
999723, -0.112427, 0.209473, 0.964966, 0.305176, -0.732422, -0.183106
999743, -0.111816, 0.208984, 0.960693, 0.427246, -0.610352, -0.183106
999763, -0.111206, 0.210327, 0.961426, 0.427246, -0.549316, -0.183106
999783, -0.111328, 0.210205, 0.963013, 0.366211, -0.793457, -0.122070
999803, -0.110962, 0.209961, 0.961670, 0.366211, -0.671387, -0.183106
999823, -0.110718, 0.209717, 0.963989, 0.366211, -0.793457, -0.183106
999843, -0.110840, 0.209595, 0.962524, 0.427246, -0.671387, -0.183106
999863, -0.111694, 0.209473, 0.962524, 0.366211, -0.732422, -0.122070
999883, -0.110718, 0.209473, 0.964600, 0.488281, -0.732422, -0.122070
999903, -0.112305, 0.210327, 0.962891, 0.366211, -0.793457, -0.122070
999923, -0.111572, 0.209717, 0.961914, 0.366211, -0.549316, -0.183106
999943, -0.111450, 0.209595, 0.963501, 0.305176, -0.854492, -0.183106
999963, -0.111694, 0.210205, 0.963257, 0.366211, -0.793457, -0.122070
999983, -0.111206, 0.209106, 0.962280, 0.427246, -0.671387, -0.122070
1000003, -0.111816, 0.208618, 0.962769, 0.366211, -0.732422, -0.183106
1000023, -0.111816, 0.209106, 0.963379, 0.366211, -0.732422, -0.122070
1000043, -0.111450, 0.209106, 0.963135, 0.366211, -0.732422, -0.122070
1000063, -0.111084, 0.209961, 0.963623, 0.366211, -0.671387, -0.122070
1000083, -0.111694, 0.209595, 0.963501, 0.366211, -0.671387, -0.122070
1000103, -0.110962, 0.210205, 0.963013, 0.366211, -0.671387, -0.183106
1000123, -0.110840, 0.210083, 0.963745, 0.427246, -0.732422, -0.122070
1000143, -0.111084, 0.209839, 0.961914, 0.427246, -0.732422, -0.061035
1000163, -0.110962, 0.209473, 0.963135, 0.427246, -0.610352, -0.122070
1000183, -0.110962, 0.209961, 0.963623, 0.427246, -0.793457, -0.122070
1000203, -0.111816, 0.209229, 0.962280, 0.366211, -0.610352, -0.183106
1000223, -0.111084, 0.209473, 0.962891, 0.366211, -0.732422, -0.183106
1000243, -0.111206, 0.209351, 0.962891, 0.366211, -0.671387, -0.122070
1000263, -0.111938, 0.209839, 0.964233, 0.366211, -0.671387, -0.122070
1000283, -0.111450, 0.209351, 0.962280, 0.366211, -0.732422, -0.122070
1000303, -0.110718, 0.210815, 0.963257, 0.427246, -0.610352, -0.183106
1000323, -0.111450, 0.210083, 0.962769, 0.366211, -0.732422, -0.122070
1000343, -0.111328, 0.208984, 0.961182, 0.366211, -0.732422, -0.122070
1000363, -0.111938, 0.209717, 0.963867, 0.427246, -0.732422, -0.122070
1000383, -0.111450, 0.209595, 0.962524, 0.366211, -0.671387, -0.122070
1000403, -0.110962, 0.209839, 0.962158, 0.366211, -0.732422, -0.183106
1000423, -0.112183, 0.209595, 0.963867, 0.366211, -0.732422, -0.122070
1000443, -0.111572, 0.209351, 0.962769, 0.366211, -0.671387, -0.122070
1000463, -0.110840, 0.209351, 0.963623, 0.366211, -0.671387, -0.183106
1000483, -0.111328, 0.209717, 0.962402, 0.427246, -0.610352, -0.122070
1006063, 0.030640, 0.783569, -0.640137, 2.624512, -1.220703, 1.647950
1006083, 0.032104, 0.783691, -0.639771, 2.075195, -1.281738, 0.976563
1006103, 0.027466, 0.781006, -0.645264, 0.549316, -1.953125, 0.366211
1006123, 0.030518, 0.782837, -0.644897, -1.098633, -2.807618, 0.000000
1006143, 0.028320, 0.786499, -0.639404, -2.319336, -2.563477, -0.427246
1006163, 0.026489, 0.786255, -0.634888, -2.685547, -1.831055, -0.427246
1006183, 0.039429, 0.789673, -0.639648, -2.929688, -2.014160, -0.854492
1006203, 0.036011, 0.791870, -0.647217, -3.784181, -2.807618, -1.770020
1006223, 0.031372, 0.798096, -0.621704, -4.089355, -3.417970, -2.746582
1006243, 0.021729, 0.803711, -0.630493, -3.295899, -2.624512, -2.807618
1006263, 0.014648, 0.805664, -0.632935, -3.234864, -1.464844, -2.929688
1006283, 0.012451, 0.802979, -0.622437, -2.685547, -1.098633, -2.075195
1006303, 0.014648, 0.802612, -0.621704, -2.014160, -1.342773, -1.403809
1006323, 0.016724, 0.803833, -0.625122, -1.525879, -1.464844, -1.098633
1006343, 0.024170, 0.799194, -0.625366, -1.281738, -1.098633, -1.098633
1006363, 0.011353, 0.794556, -0.639160, -1.525879, -0.793457, -1.586915
1006383, -0.050171, 0.787964, -0.664185, -4.272461, 7.263186, -0.122070
1006403, -0.031006, 0.794067, -0.656616, -7.507326, 16.052246, 2.807618
1006423, -0.022949, 0.825684, -0.560181, -5.493164, 31.677254, 5.798342
1006443, 0.001221, 0.834351, -0.529175, 1.342773, 43.212891, 6.591799
1006463, 0.011353, 0.838379, -0.535400, 8.728027, 47.546402, 8.789063
1006483, 0.074585, 0.836670, -0.648438, 6.347658, 41.687012, -4.516602
1006503, 0.000854, 0.838135, -0.708984, -10.803223, 36.865234, -17.578125
1006523, 0.001465, 0.882813, -0.616699, -23.193367, 29.418953, -24.963387
1006543, -0.027832, 0.851563, -0.593506, -32.287598, 19.653320, -37.170410
1006563, -0.052856, 0.874878, -0.492676, -33.752441, 15.136723, -30.883797
1006583, 0.002441, 0.884766, -0.458984, -29.235847, 11.901859, -23.864754
1006603, 0.027954, 0.886719, -0.493774, -26.123055, 21.301270, -16.052246
1006623, 0.081055, 0.902100, -0.467651, -23.620613, 23.925789, -12.268070
1006643, 0.140381, 0.876831, -0.575195, -29.296883, 25.329597, -13.305668
1006663, 0.180664, 0.873291, -0.590942, -47.729507, 13.244633, -24.841316
1006683, 0.158203, 0.903809, -0.404785, -53.649918, -7.446291, -26.916512
1006703, 0.125000, 0.922485, -0.365479, -50.048843, -24.169930, -28.137215
1006723, 0.073120, 0.933350, -0.317505, -42.114258, -32.226563, -24.414070
1006743, 0.030884, 0.917725, -0.324219, -25.024422, -27.343758, -8.972168
1006763, 0.105225, 0.891724, -0.561523, -28.564461, -20.507813, 1.220703
1006783, 0.137939, 0.855225, -0.511963, -44.006348, -20.446777, 6.408693
1006803, 0.158813, 0.873657, -0.502441, -40.649414, -25.939949, 18.493652
1006823, 0.182495, 0.879883, -0.543579, -39.733887, -32.287598, 20.629883
1006843, 0.186401, 0.853760, -0.529907, -40.954590, -41.259766, 22.644051
1006863, 0.183228, 0.890015, -0.496460, -34.912109, -49.377457, 19.714355
1006883, 0.173950, 0.875977, -0.544800, -30.639656, -58.044449, 16.784668
1006903, 0.119629, 0.874023, -0.555786, -30.639656, -62.561050, 18.127441
1006923, 0.038940, 0.875732, -0.517212, -29.113777, -68.176270, 24.658211
1006943, -0.010132, 0.891113, -0.499756, -26.123055, -63.354507, 29.235847
1006963, -0.072266, 0.921021, -0.451538, -21.728516, -50.659195, 32.226563
1006983, -0.124512, 0.919067, -0.445557, -14.831547, -23.376472, 38.513184
1007003, -0.060791, 0.941650, -0.349365, -4.089355, -17.456055, 40.954590
1007023, -0.018433, 0.942017, -0.368530, 6.225588, -8.666992, 36.437988
1007043, -0.000732, 0.927124, -0.385132, 13.000492, -5.493164, 30.334480
1007063, -0.018188, 0.922852, -0.395752, 15.747074, 2.136230, 22.521980
1007083, -0.018799, 0.933716, -0.401733, 15.625004, 6.225588, 17.089844
1007103, -0.036987, 0.944092, -0.364746, 17.028809, 7.934572, 12.573246
1007123, -0.016846, 0.951660, -0.351074, 21.423340, 8.605957, 6.225588
1007143, -0.024170, 0.946777, -0.376221, 23.376472, 9.277344, 2.807618
1007163, -0.008179, 0.943115, -0.387695, 21.667480, 12.512211, -2.380371
1007183, -0.012939, 0.959106, -0.339355, 16.723633, 12.512211, -5.737307
1007203, -0.011719, 0.963257, -0.321777, 20.935059, 15.869144, -5.798342
1007223, 0.017334, 0.948242, -0.328247, 23.681648, 20.080566, -8.605957
1007243, 0.011230, 0.935791, -0.368408, 19.897461, 27.038582, -8.483887
1007263, 0.042480, 0.969849, -0.306152, 17.578125, 24.169930, -7.751467
1007283, 0.011719, 0.983643, -0.253784, 26.733406, 23.681648, -7.629396
1007303, 0.054199, 0.966675, -0.297852, 30.883797, 29.052742, -7.568361
1007323, 0.064819, 0.967285, -0.289673, 36.804199, 30.883797, -13.793949
1007343, 0.008179, 0.945557, -0.374878, 36.315918, 39.794922, -17.517090
1007363, 0.063477, 0.959595, -0.328125, 33.081055, 43.823242, -17.639160
1007383, 0.062866, 0.931274, -0.339966, 39.001465, 43.640137, -22.338875
1007403, 0.140015, 0.898193, -0.429565, 33.508301, 48.767105, -16.235352
1007423, 0.177734, 0.901611, -0.438110, 25.634773, 42.541504, -11.169437
1007443, 0.195190, 0.905273, -0.432983, 20.324707, 37.109375, 1.159668
1007463, 0.288818, 0.900757, -0.424805, 16.601563, 25.268562, 9.460449
1007483, 0.313477, 0.893311, -0.426025, 16.235352, 15.014652, 9.094238
1007503, 0.323486, 0.876709, -0.463867, 14.099125, 4.821777, 6.347658
1007523, 0.335083, 0.877686, -0.452515, 15.136723, -14.831547, -3.967286
1007543, 0.230347, 0.865479, -0.466553, 19.348145, -22.888191, -13.916019
