timestamp,ax,ay,az,gx,gy,gz
3459499, 0.337769, 0.753784, -0.592529, 0.915528, -1.831055, 0.610352
3459519, 0.334595, 0.751099, -0.595703, 0.061035, -1.464844, 0.488281
3459539, 0.334229, 0.753052, -0.586304, -0.305176, -1.647950, 0.610352
3459559, 0.334717, 0.755005, -0.584351, -0.305176, -1.403809, 0.793457
3459599, 0.336914, 0.753906, -0.586182, -0.183106, -2.075195, 1.281738
3459619, 0.337158, 0.755859, -0.584229, -0.061035, -2.319336, 1.159668
3459639, 0.333374, 0.754761, -0.587036, -0.244141, -1.953125, 1.342773
3459659, 0.339600, 0.755981, -0.581909, 0.000000, -1.892090, 1.342773
3459679, 0.342529, 0.753418, -0.585571, 0.122070, -1.953125, 1.098633
3459699, 0.337524, 0.754517, -0.587524, -0.061035, -2.075195, 0.732422
3459719, 0.335571, 0.754272, -0.585938, -0.122070, -1.708985, 0.732422
3459739, 0.337036, 0.754517, -0.584473, -0.183106, -1.647950, 0.732422
3459759, 0.339111, 0.753906, -0.581543, 0.061035, -1.586915, 0.610352
3459779, 0.344360, 0.756348, -0.583130, 0.305176, -1.464844, 0.122070
3459799, 0.338745, 0.755005, -0.583984, 0.549316, -1.770020, -0.244141
3459819, 0.335449, 0.755615, -0.582520, 0.915528, -1.831055, -0.122070
3459839, 0.334839, 0.754761, -0.584717, 1.281738, -2.136230, 0.061035
3459859, 0.334473, 0.752197, -0.590820, 1.098633, -1.770020, 0.000000
3459879, 0.331787, 0.753418, -0.589355, 0.854492, -1.281738, 0.122070
3459899, 0.333618, 0.753296, -0.587646, 0.671387, -1.159668, 0.427246
3459919, 0.337646, 0.751343, -0.586548, 0.671387, -1.159668, 0.427246
3459939, 0.338379, 0.753296, -0.587158, 0.732422, -1.159668, 0.122070
3459959, 0.336060, 0.752441, -0.588379, 0.610352, -1.098633, 0.061035
3460039, 0.331177, 0.751343, -0.592773, 1.159668, -1.464844, 0.061035
3460059, 0.336182, 0.749634, -0.591309, 0.732422, -1.037598, 0.122070
3460079, 0.336182, 0.751221, -0.592041, 0.549316, -1.220703, -0.061035
3460099, 0.332764, 0.749878, -0.594238, 0.183106, -0.915528, 0.000000
3460119, 0.335571, 0.752563, -0.590576, -0.183106, -0.671387, 0.000000
3460139, 0.337402, 0.752319, -0.588379, -0.244141, -0.610352, -0.061035
3460199, 0.334473, 0.752441, -0.589233, 0.488281, -1.220703, -0.305176
3460219, 0.333984, 0.751465, -0.592651, 0.305176, -1.159668, -0.305176
3460239, 0.333496, 0.751831, -0.587891, 0.122070, -1.098633, -0.305176
3460259, 0.332764, 0.752197, -0.590210, 0.122070, -0.976563, -0.183106
3460279, 0.331299, 0.753296, -0.587891, 0.122070, -1.037598, 0.122070
3460319, 0.337769, 0.753662, -0.586548, 0.183106, -0.915528, -0.122070
3460339, 0.335693, 0.750977, -0.589478, 0.183106, -1.098633, -0.366211
3460359, 0.333496, 0.751465, -0.593262, -0.122070, -0.793457, -0.427246
3460379, 0.330566, 0.753906, -0.587158, -0.427246, -0.488281, 0.000000
3460399, 0.328857, 0.755615, -0.582153, -0.061035, -0.549316, 0.366211
3460419, 0.334717, 0.754883, -0.579712, 0.610352, -0.854492, 0.671387
3460539, 0.340210, 0.752686, -0.588379, 0.610352, -0.610352, -0.122070
3460559, 0.335205, 0.751831, -0.589233, 0.610352, -0.732422, -0.305176
3460579, 0.332642, 0.753174, -0.587036, 0.793457, -0.793457, -0.122070
3460599, 0.334595, 0.751465, -0.588989, 0.732422, -0.854492, 0.061035
3460619, 0.337280, 0.752441, -0.589478, 0.732422, -0.915528, -0.183106
3460639, 0.332275, 0.752441, -0.588135, 0.793457, -0.915528, -0.244141
3460659, 0.332275, 0.752563, -0.588745, 0.854492, -0.915528, 0.000000
3460679, 0.331177, 0.752075, -0.591553, 0.915528, -1.037598, 0.122070
3460699, 0.331421, 0.750854, -0.593262, 0.732422, -0.732422, 0.427246
3460719, 0.338501, 0.750366, -0.592285, 0.427246, -0.610352, 0.305176
3460739, 0.341064, 0.750366, -0.591187, 0.305176, -0.732422, -0.305176
3460759, 0.335571, 0.751587, -0.590454, 0.122070, -0.610352, -0.610352
3460779, 0.327515, 0.752441, -0.588013, 0.183106, -0.793457, -0.244141
3460799, 0.330200, 0.752808, -0.588501, 0.427246, -0.854492, 0.305176
3460819, 0.333740, 0.751709, -0.590820, 0.366211, -0.976563, 0.366211
3460839, 0.336060, 0.751953, -0.591187, 0.305176, -0.732422, 0.305176
3460859, 0.338745, 0.752197, -0.588745, 0.427246, -0.732422, 0.000000
3460879, 0.337158, 0.752686, -0.589111, 0.427246, -0.732422, -0.427246
3460899, 0.332153, 0.751831, -0.589355, 0.366211, -0.793457, -0.366211
3460919, 0.333862, 0.751953, -0.589844, 0.427246, -0.854492, -0.305176
3460939, 0.329834, 0.752075, -0.591797, 0.366211, -0.854492, -0.183106
3460959, 0.335815, 0.751953, -0.589722, 0.183106, -0.610352, 0.183106
3460979, 0.337891, 0.751587, -0.589966, 0.244141, -0.671387, -0.122070
3460999, 0.335083, 0.752197, -0.588257, 0.244141, -0.793457, -0.366211
3461019, 0.335449, 0.751831, -0.588135, 0.427246, -0.732422, -0.427246
3461039, 0.332275, 0.751709, -0.590088, 0.305176, -0.793457, -0.366211
3461059, 0.329834, 0.751831, -0.590576, 0.244141, -0.671387, -0.183106
3461079, 0.333130, 0.752319, -0.588013, 0.244141, -0.488281, 0.000000
3461119, 0.331787, 0.751831, -0.589355, 0.549316, -0.671387, -0.061035
3461139, 0.331909, 0.752686, -0.589478, 0.549316, -0.671387, 0.183106
3461179, 0.335815, 0.751221, -0.591187, 0.305176, -0.549316, -0.061035
3461199, 0.333252, 0.751587, -0.588623, 0.427246, -0.610352, -0.061035
3461219, 0.333740, 0.751465, -0.588989, 0.305176, -0.671387, 0.000000
3461239, 0.335938, 0.752319, -0.589478, 0.427246, -1.037598, 0.000000
3461259, 0.335327, 0.751587, -0.595459, 0.244141, -0.854492, -0.122070
3461279, 0.338745, 0.750854, -0.596313, -0.122070, -0.671387, -0.305176
3461299, 0.360229, 0.761353, -0.600342, -0.549316, 0.671387, -1.586915
3461319, 0.307983, 0.805298, -0.588501, 0.671387, -0.915528, -1.220703
3461339, 0.101318, 0.816772, -0.524170, 13.732914, -4.638672, 27.648933
3461359, 0.244995, 1.059814, -0.628418, 40.954590, -11.474613, 33.264160
3461379, 0.261841, 0.848755, -0.822510, 52.307144, -0.915528, 2.441406
3461399, 0.162842, 0.702637, -0.882324, 42.480469, 9.582520, -10.314941
3461419, 0.204468, 0.668091, -0.796265, 36.987305, 15.930180, -16.296387
3461439, 0.261719, 0.603760, -0.727051, 38.635254, 17.272949, -25.268562
3461459, 0.258911, 0.464966, -0.713135, 32.531738, 19.042969, -32.226563
3461479, 0.271973, 0.372803, -0.688721, 15.869144, 28.991707, -38.085938
3461499, 0.325073, 0.345947, -0.660645, -5.554201, 34.484863, -41.931152
3461519, 0.346802, 0.451172, -0.552246, -35.400391, 40.161133, -39.550781
3461539, 0.352905, 0.584839, -0.477051, -44.372574, 42.846680, -29.846199
3461559, 0.374756, 0.806030, -0.441162, -48.034683, 40.527344, -28.808601
3461579, 0.238281, 1.571777, -0.276367, -14.282230, 42.297363, 7.873537
3461599, 0.562134, 1.027466, -0.331665, 46.447769, 31.066902, 12.084965
3461619, 0.400635, 0.806152, -0.841309, 13.183598, 52.490250, -5.920412
3461639, 0.561157, 0.923218, -0.448486, -5.249023, 52.612320, -27.160652
3461659, 0.481689, 0.838379, -0.439453, -1.525879, 29.663094, -47.180191
3461679, 0.357422, 0.783691, -0.406616, 1.342773, 3.356935, -49.743668
3461699, 0.299561, 0.771118, -0.435791, 10.803223, -1.586915, -38.757324
3461719, 0.313477, 0.736572, -0.567017, 11.840824, 4.089355, -21.789551
3461739, 0.356323, 0.737305, -0.610596, 8.300781, 15.991215, -12.084965
3461759, 0.417725, 0.751953, -0.634644, 0.549316, 23.071297, -15.441898
3461779, 0.393799, 0.776123, -0.571411, -3.601075, 18.798828, -20.507813
3461799, 0.359619, 0.753540, -0.555786, -4.882813, 11.108402, -20.935059
3461819, 0.320313, 0.754761, -0.510742, -0.854492, 2.868653, -15.380863
3461839, 0.333496, 0.763916, -0.541016, 1.647950, 1.770020, -11.352543
3461859, 0.337158, 0.770996, -0.567261, 2.258301, 3.662110, -10.009766
3461879, 0.335571, 0.785522, -0.564209, 0.549316, 3.723145, -8.422852
3461899, 0.330933, 0.778442, -0.569458, -6.225588, 1.525879, -7.324221
3461919, 0.334473, 0.788452, -0.568726, -9.521484, 3.234864, -7.568361
3461939, 0.369751, 0.816040, -0.601318, -14.404301, 3.967286, -12.512211
3461959, 0.371460, 0.808472, -0.544800, -22.338875, -2.807618, -20.935059
3462019, 0.224976, 0.796509, -0.470459, -20.690918, -13.854984, -7.141115
3462039, 0.184814, 0.815674, -0.489258, -14.038090, 6.347658, 2.441406
3462059, 0.304443, 0.813110, -0.565674, -18.859863, 11.230473, 8.361816
3462079, 0.372437, 0.808350, -0.534058, -27.771004, -8.361816, 10.742188
3462099, 0.402466, 0.785400, -0.553833, -38.635254, -22.949226, 13.732914
3462119, 0.411499, 0.788818, -0.523560, -46.325699, -36.254883, 16.479492
3462139, 0.401245, 0.781860, -0.483765, -52.246109, -38.208008, 19.775391
3462159, 0.395386, 0.790527, -0.449341, -48.461929, -47.973648, 22.521980
3462179, 0.369385, 0.767700, -0.474243, -47.790543, -46.447769, 29.174812
3462199, 0.404297, 0.802002, -0.422852, -41.503906, -48.400894, 32.653809
3462219, 0.382690, 0.787354, -0.456909, -31.799324, -42.602539, 32.958984
3462239, 0.411499, 0.787476, -0.491211, -26.733406, -38.391113, 32.775879
3462259, 0.452637, 0.804932, -0.498535, -22.155769, -42.236328, 30.029305
3462279, 0.391724, 0.821289, -0.503418, -15.930180, -53.710953, 20.141602
3462299, 0.298584, 0.826172, -0.492676, -9.582520, -52.673355, 15.747074
3462399, 0.334106, 0.838135, -0.554443, 19.348145, -7.202150, 17.211914
3462419, 0.271484, 0.835449, -0.531616, 24.536140, -13.488773, 8.300781
3462439, 0.267700, 0.833130, -0.549805, 23.010262, -3.845216, -1.403809
3462459, 0.206299, 0.838989, -0.507568, 25.634773, 0.244141, -0.244141
3462479, 0.222412, 0.840454, -0.535400, 21.545410, 7.751467, -3.906251
3462499, 0.233032, 0.840332, -0.517212, 20.996094, 9.643555, -5.798342
3462519, 0.232422, 0.852051, -0.510376, 21.728516, 10.620117, -5.859377
3462539, 0.242065, 0.846436, -0.497314, 21.118164, 10.864258, -6.774904
3462559, 0.237061, 0.857910, -0.513550, 18.676758, 10.070801, -5.065918
3462579, 0.253540, 0.856812, -0.494385, 15.930180, 12.451176, -5.554201
3462599, 0.257935, 0.859009, -0.469238, 17.395020, 8.544922, -5.737307
3462619, 0.280518, 0.853638, -0.477905, 18.249512, 11.596684, -6.408693
3462699, 0.277588, 0.829102, -0.497803, 37.475586, 9.704590, -23.559578
3462719, 0.273560, 0.817261, -0.555298, 32.470703, 19.348145, -25.146492
3462739, 0.262451, 0.836060, -0.535767, 26.916512, 21.911621, -27.587898
3462759, 0.237549, 0.842041, -0.539795, 24.169930, 28.625496, -26.489265
3462779, 0.250000, 0.812134, -0.542358, 17.761230, 32.897949, -20.751953
3462799, 0.300171, 0.813843, -0.539673, 10.131836, 40.954590, -14.892582
3462819, 0.383911, 0.815308, -0.532959, 2.807618, 49.987808, -11.840824
3462839, 0.443604, 0.806396, -0.564209, -5.615236, 46.813980, -14.099125
3462859, 0.446899, 0.785156, -0.528320, -14.831547, 28.076180, -22.033691
3462879, 0.435425, 0.756958, -0.502075, -14.465336, 12.207035, -22.644051
3462899, 0.385254, 0.743042, -0.489380, -9.033203, 5.859377, -15.380863
3462919, 0.365601, 0.727539, -0.513550, -4.333496, 1.525879, -10.009766
3462939, 0.370972, 0.747314, -0.515015, 2.807618, -3.417970, -0.976563
3462959, 0.385376, 0.761719, -0.552490, 4.943848, -7.263186, 0.549316
3462979, 0.361450, 0.781616, -0.576294, 3.173829, -6.286623, -3.662110
3462999, 0.323120, 0.788696, -0.564697, 0.610352, -5.737307, -5.737307
3463019, 0.335815, 0.792480, -0.561035, -1.220703, -13.122562, -5.859377
3463039, 0.289795, 0.801758, -0.529297, -1.220703, -16.174316, -5.065918
3463059, 0.287109, 0.805664, -0.524902, 0.244141, -13.488773, -4.394531
3463079, 0.279541, 0.803711, -0.528076, 2.075195, -12.695316, -3.540040
3463099, 0.276733, 0.800415, -0.544067, 3.112794, -10.559082, -2.624512
3463119, 0.273193, 0.799805, -0.557007, 2.868653, -9.460449, -1.403809
3463139, 0.265625, 0.797729, -0.558350, 2.563477, -6.286623, -0.366211
3463159, 0.272461, 0.796875, -0.560547, 2.014160, -5.065918, 0.732422
3463179, 0.279785, 0.794678, -0.559692, 1.403809, -3.845216, 1.464844
3463199, 0.288818, 0.797974, -0.557617, 1.220703, -2.868653, 1.281738
3463219, 0.279053, 0.797607, -0.556274, 1.159668, -1.281738, 1.220703
3463239, 0.294556, 0.796509, -0.554688, 1.159668, -1.281738, 1.464844
3463259, 0.300415, 0.796387, -0.551880, 1.403809, -1.281738, 0.488281
3463279, 0.297241, 0.795532, -0.552734, 1.708985, -1.281738, -0.488281
3463299, 0.291016, 0.795288, -0.554443, 1.953125, -1.892090, -0.915528
3463319, 0.282471, 0.795044, -0.559204, 1.953125, -2.014160, -0.793457
3463339, 0.274292, 0.794189, -0.561157, 1.770020, -1.892090, 0.061035
3463359, 0.280884, 0.792969, -0.567993, 1.159668, -1.770020, 0.732422
3463399, 0.286499, 0.794678, -0.556396, 0.549316, -1.403809, 1.037598
