timestamp,ax,ay,az,gx,gy,gz
1627699, 0.536499, 0.502075, -0.689697, 9.643555, 2.502441, 14.770512
1627719, 0.526611, 0.510010, -0.728027, 8.483887, 5.676271, 15.075687
1627739, 0.519653, 0.508911, -0.751953, 8.483887, 9.765625, 14.099125
1627759, 0.501831, 0.489990, -0.738647, 5.187988, 10.192871, 10.009766
1627779, 0.488159, 0.466553, -0.710693, 4.882813, 8.117676, 6.530764
1627799, 0.502319, 0.428223, -0.697510, -2.319336, 6.713869, 5.187988
1627819, 0.531128, 0.477051, -0.642822, -5.249023, 4.211426, 4.211426
1627839, 0.583862, 0.495239, -0.611572, -1.098633, 2.136230, 0.183106
1627859, 0.612183, 0.463257, -0.579956, 3.051759, -2.990724, -3.906251
1627879, 0.601807, 0.438965, -0.598511, -0.183106, -6.347658, -5.981447
1627899, 0.583008, 0.476929, -0.619019, -4.882813, -8.361816, -5.920412
1627919, 0.556763, 0.527588, -0.665039, -3.173829, -10.437012, -6.103518
1627939, 0.544067, 0.564697, -0.750854, -1.770020, -8.972168, -4.394531
1627959, 0.522339, 0.585083, -0.776733, -0.244141, -4.211426, 0.244141
1627979, 0.503296, 0.539551, -0.735352, 2.075195, -1.525879, 4.882813
1627999, 0.523926, 0.490112, -0.694946, 1.831055, -0.793457, 4.333496
1628019, 0.548584, 0.480469, -0.672974, 0.610352, -2.014160, -1.037598
1628039, 0.557251, 0.488892, -0.668213, 0.610352, -1.770020, -2.685547
1628059, 0.559326, 0.522339, -0.682129, -0.183106, -1.831055, -0.183106
1628079, 0.554688, 0.539795, -0.684326, 0.976563, -1.220703, 3.662110
1628099, 0.541504, 0.513916, -0.684448, 2.441406, -2.075195, 4.089355
1628119, 0.531372, 0.474976, -0.684814, 2.075195, -1.953125, 1.586915
1628139, 0.532227, 0.464111, -0.689453, 0.244141, -1.098633, -2.380371
1628159, 0.532593, 0.480713, -0.697388, -1.220703, -0.793457, -4.699707
1628179, 0.536987, 0.504272, -0.700928, -1.770020, -0.427246, -4.577637
1628199, 0.539429, 0.508423, -0.686523, -1.342773, -1.281738, -4.150391
1628219, 0.542480, 0.503906, -0.682007, -1.647950, -0.793457, -4.028320
1628239, 0.557251, 0.510498, -0.671387, -1.892090, -0.427246, -3.356935
1628259, 0.549438, 0.516479, -0.675781, -1.953125, -1.098633, -2.685547
1628279, 0.534180, 0.513062, -0.681519, -2.319336, -1.037598, -2.319336
1628299, 0.529175, 0.514893, -0.693848, -2.441406, -1.098633, -2.197266
1628319, 0.529419, 0.511230, -0.693115, -2.807618, -0.732422, -2.258301
1628339, 0.533447, 0.509766, -0.690063, -3.906251, -0.244141, -1.403809
1628359, 0.539795, 0.514526, -0.680176, -4.150391, -1.220703, -1.647950
1628379, 0.536133, 0.525757, -0.679077, -3.601075, -1.525879, -1.770020
1628399, 0.537476, 0.528931, -0.679810, -1.708985, -1.342773, -1.464844
1628419, 0.531128, 0.521484, -0.682251, -1.403809, -1.770020, -1.708985
1628439, 0.531128, 0.523682, -0.685791, -1.831055, -1.403809, -1.647950
1628459, 0.533203, 0.525146, -0.681396, -1.464844, -1.525879, -1.342773
1628479, 0.531372, 0.517578, -0.680664, -1.525879, -0.793457, -1.098633
1628499, 0.531616, 0.509766, -0.675171, -2.014160, -0.244141, -1.708985
1628519, 0.539307, 0.527222, -0.677246, -2.075195, -0.122070, -2.197266
1628539, 0.536865, 0.549316, -0.680298, -0.854492, -0.610352, -1.464844
1628559, 0.532715, 0.542603, -0.680176, 0.549316, -0.549316, -0.061035
1628579, 0.527954, 0.510376, -0.675049, 0.305176, -0.976563, -0.427246
1628599, 0.528076, 0.511475, -0.683105, -1.098633, -0.183106, -1.098633
1628619, 0.536255, 0.526855, -0.679565, -1.464844, -0.305176, -1.464844
1628639, 0.536133, 0.532837, -0.674438, -1.220703, -0.549316, -1.037598
1628659, 0.532959, 0.537109, -0.674194, -0.915528, -1.159668, -0.854492
1628679, 0.528931, 0.537109, -0.680298, -0.122070, -1.281738, 0.000000
1628699, 0.525146, 0.525757, -0.681396, 0.183106, -0.976563, -0.061035
1628719, 0.525757, 0.515747, -0.681030, -0.305176, -0.366211, -0.915528
1628739, 0.532104, 0.523071, -0.678833, -1.525879, -0.244141, -1.220703
1628759, 0.535889, 0.546631, -0.673584, -1.098633, -0.183106, -0.183106
1628779, 0.527222, 0.527222, -0.671143, 0.549316, -0.732422, 0.061035
1628799, 0.532349, 0.519775, -0.682495, -0.183106, -0.488281, -0.549316
1628819, 0.527588, 0.537109, -0.680054, 0.000000, -0.671387, -0.488281
1628839, 0.532593, 0.525146, -0.676636, 0.549316, -0.793457, -0.305176
1628859, 0.522583, 0.530762, -0.678955, -0.122070, -0.671387, -0.549316
1628879, 0.534790, 0.517578, -0.673218, -0.122070, -0.854492, -0.915528
1628899, 0.530640, 0.525757, -0.673340, -1.525879, 0.305176, -1.342773
1628919, 0.537598, 0.528442, -0.667603, -0.915528, -0.061035, -1.342773
1628939, 0.528687, 0.526001, -0.677368, -1.831055, -0.244141, -1.892090
1628959, 0.530518, 0.530273, -0.679565, -2.685547, -0.732422, -1.953125
1628979, 0.524902, 0.528564, -0.678589, -4.211426, -0.793457, -0.854492
1628999, 0.530151, 0.523071, -0.670288, -6.042482, -0.793457, -0.122070
1629019, 0.529541, 0.525635, -0.667969, -7.568361, -1.159668, -0.488281
1629039, 0.527954, 0.524292, -0.669312, -7.812502, -0.366211, -1.281738
1629059, 0.525757, 0.522583, -0.670776, -10.009766, 1.220703, -1.647950
1629079, 0.528198, 0.540894, -0.659058, -11.657719, 1.464844, -0.793457
1629099, 0.533569, 0.558105, -0.655518, -9.704590, 0.976563, -0.183106
1629119, 0.530884, 0.540405, -0.663696, -9.643555, 1.464844, -0.793457
1629139, 0.526855, 0.513550, -0.651733, -12.573246, 1.647950, -0.854492
1629159, 0.510254, 0.527588, -0.657227, -19.165039, 6.408693, -0.732422
1629179, 0.484131, 0.692627, -0.621338, -8.361816, 7.446291, 0.915528
1629199, 0.561401, 0.574341, -0.675537, 3.112794, 19.104004, 2.624512
1629219, 0.493164, 0.562744, -0.641235, -1.098633, 12.939457, 2.380371
1629239, 0.556641, 0.563599, -0.636963, 0.610352, 17.272949, 2.197266
1629259, 0.541992, 0.562866, -0.636719, 2.685547, 17.150879, -0.061035
1629279, 0.528687, 0.565674, -0.632690, 3.784181, 18.127441, -0.122070
1629299, 0.544434, 0.578369, -0.640869, 4.394531, 19.775391, -0.183106
1629319, 0.540161, 0.587524, -0.631470, 6.164553, 20.751953, -1.525879
1629359, 0.575684, 0.581421, -0.623901, 6.408693, 8.850098, -9.460449
1629379, 0.632324, 0.623779, -0.596436, 8.300781, -1.647950, -15.991215
1629399, 0.559082, 0.601074, -0.621704, 10.375977, -12.817387, -24.047859
1629419, 0.528442, 0.607422, -0.622803, 6.408693, -7.629396, -20.446777
1629439, 0.585083, 0.635498, -0.663086, 5.249023, -20.263672, -27.832039
1629459, 0.495361, 0.564331, -0.618408, 0.915528, -11.230473, -25.390633
1629479, 0.523438, 0.604248, -0.628418, -0.793457, -12.146000, -23.315437
1629499, 0.544067, 0.623535, -0.647461, -5.615236, -10.681152, -22.399910
1629519, 0.536011, 0.602051, -0.635010, -7.568361, -16.113281, -24.108894
1629539, 0.533691, 0.593018, -0.655762, -13.854984, -18.371582, -17.517090
1629559, 0.512939, 0.612183, -0.700562, -21.789551, -25.756844, -15.686039
1629579, 0.537598, 0.609253, -0.666016, -29.113777, -30.578621, -14.892582
1629599, 0.506470, 0.618896, -0.617432, -30.334480, -43.762207, -14.343266
1629619, 0.475342, 0.640625, -0.644775, -32.592773, -44.982925, -13.488773
1629639, 0.475464, 0.648804, -0.657227, -35.461426, -48.034683, -13.610844
1629659, 0.474731, 0.789307, -0.508423, -43.457031, -42.480469, -12.756351
1629679, 0.496460, 0.528931, -0.708496, -37.414551, -52.795425, -12.023930
1629699, 0.364380, 0.665283, -0.604370, -53.405777, -36.499023, -4.028320
1629719, 0.418701, 0.671387, -0.550293, -45.288101, -30.334480, 1.464844
1629739, 0.437988, 0.656860, -0.584717, -42.907715, -30.029305, 6.164553
1629759, 0.412354, 0.648071, -0.543579, -34.484863, -34.545898, 9.216309
1629779, 0.374023, 0.668335, -0.590088, -21.728516, -43.945313, 13.183598
1629799, 0.377930, 0.692139, -0.573242, -14.587406, -44.616714, 12.329105
1629819, 0.303223, 0.715088, -0.581421, -7.751467, -36.804199, 13.793949
1629839, 0.312256, 0.720337, -0.607788, -7.080080, -21.850586, 15.441898
1629859, 0.313354, 0.717285, -0.597168, -3.967286, -6.958010, 16.845703
1629879, 0.359619, 0.709717, -0.599854, -1.220703, -5.859377, 17.639160
1629899, 0.367310, 0.685547, -0.583374, 3.234864, -7.080080, 18.859863
1629919, 0.420410, 0.700562, -0.564209, 14.221195, -6.530764, 18.371582
1629939, 0.369507, 0.706177, -0.598999, 20.019531, -3.479005, 14.404301
1629959, 0.361694, 0.697021, -0.603882, 24.353035, 8.666992, 11.169437
1629979, 0.375732, 0.714478, -0.684204, 24.658211, 18.310547, 6.103518
1629999, 0.345947, 0.664185, -0.618652, 23.132332, 20.019531, 7.385256
1630019, 0.317505, 0.636597, -0.640381, 26.794441, 24.353035, 11.474613
1630039, 0.368164, 0.695190, -0.675903, 29.663094, 33.630371, 14.709476
1630059, 0.434570, 0.621338, -0.667603, 24.658211, 30.395515, 14.526371
1630079, 0.441406, 0.651367, -0.655273, 23.742683, 28.503426, 12.939457
1630099, 0.449219, 0.627197, -0.616821, 27.587898, 19.104004, 12.329105
1630119, 0.380493, 0.595215, -0.645508, 27.404793, 13.854984, 15.625004
1630139, 0.421997, 0.673950, -0.701538, 23.193367, 13.916019, 25.756844
1630159, 0.504028, 0.635864, -0.633423, 17.517090, 18.371582, 18.493652
1630179, 0.535400, 0.657715, -0.643066, 17.333984, 20.812988, 13.305668
1630199, 0.505493, 0.613037, -0.611816, 20.751953, 6.774904, 10.192871
1630219, 0.545410, 0.623291, -0.655273, 15.014652, 26.306160, 2.136230
1630239, 0.475952, 0.606079, -0.640869, 16.723633, 25.207527, 0.000000
1630259, 0.475708, 0.572510, -0.649658, 18.615723, 30.883797, -0.854492
1630279, 0.455444, 0.610840, -0.662720, 23.559578, 23.803719, 3.417970
1630299, 0.506592, 0.590210, -0.644409, 16.784668, 41.381836, -2.929688
1630319, 0.534668, 0.587891, -0.618042, 20.324707, 35.644531, -4.577637
1630339, 0.539429, 0.576294, -0.669800, 21.667480, 31.738289, -7.629396
1630459, 0.586426, 0.555420, -0.617920, 4.943848, 9.094238, -5.310059
1630479, 0.575317, 0.561646, -0.599487, 0.915528, 5.249023, -1.220703
1630499, 0.568970, 0.562256, -0.611084, 0.061035, 5.493164, 0.610352
1630519, 0.574463, 0.559448, -0.618774, -0.854492, 5.676271, 1.159668
1630539, 0.593018, 0.560181, -0.614258, -1.403809, 1.586915, 0.671387
1630559, 0.570801, 0.566406, -0.606445, -0.976563, -0.671387, 0.671387
1630579, 0.582031, 0.567261, -0.599609, -0.061035, -1.770020, 0.793457
1630599, 0.586792, 0.568237, -0.594604, 1.647950, -2.563477, -0.427246
1630619, 0.579712, 0.573608, -0.598633, 3.295899, -2.563477, -1.342773
1630639, 0.589111, 0.617920, -0.606201, 6.530764, 4.028320, -1.892090
1630659, 0.666138, 0.745728, -0.660767, 11.901859, 4.028320, -1.037598
1630679, 0.643433, 1.071533, -0.415039, 47.607437, -39.794922, 14.953617
1630739, 0.464966, 0.258545, -0.634033, 42.907715, -57.617203, 26.733406
1630779, 0.520874, 0.489990, -0.744629, 33.020020, -41.931152, 30.334480
