timestamp,ax,ay,az,gx,gy,gz
2065766, 0.274048, 0.826172, -0.515991, 0.183106, 2.380371, 0.122070
2065786, 0.277588, 0.817749, -0.511108, 1.037598, 2.136230, -0.183106
2065806, 0.295288, 0.827759, -0.524414, 1.892090, -1.098633, -0.854492
2065826, 0.256470, 0.811646, -0.531372, 0.915528, -2.014160, -1.037598
2065846, 0.251221, 0.818237, -0.528687, 0.305176, -0.488281, 0.488281
2065866, 0.258911, 0.826050, -0.518188, 0.610352, 1.464844, 1.647950
2065886, 0.269775, 0.822754, -0.514771, 1.464844, 2.319336, 2.197266
2065906, 0.292358, 0.821045, -0.508057, 2.258301, 1.953125, 1.831055
2065926, 0.312500, 0.829102, -0.492310, 4.333496, -1.159668, -0.183106
2065946, 0.309448, 0.827271, -0.479004, 7.812502, -4.394531, -2.136230
2065966, 0.305786, 0.823853, -0.493652, 11.291508, -8.544922, -4.211426
2065986, 0.229614, 0.811035, -0.551025, 12.756351, -10.253906, -3.234864
2066006, 0.209595, 0.804565, -0.568726, 10.681152, -6.286623, -0.061035
2066026, 0.218506, 0.805420, -0.562012, 8.911133, -1.525879, 3.601075
2066046, 0.247437, 0.805298, -0.548218, 8.300781, 1.098633, 5.798342
2066066, 0.291748, 0.804565, -0.542847, 8.789063, -0.244141, 6.286623
2066086, 0.314087, 0.798218, -0.570557, 8.361816, -6.408693, 3.784181
2066106, 0.261108, 0.789307, -0.593018, 5.676271, -7.019045, 2.929688
2066126, 0.265991, 0.788330, -0.608887, 1.647950, -3.173829, 3.173829
2066146, 0.252808, 0.790283, -0.590820, -1.953125, -1.098633, 3.234864
2066166, 0.271729, 0.796875, -0.561279, -3.234864, 0.427246, 4.516602
2066186, 0.275269, 0.804810, -0.539917, -3.112794, -1.647950, 2.990724
2066206, 0.259277, 0.800171, -0.551147, -2.563477, 0.854492, 3.601075
2066226, 0.270142, 0.802734, -0.545898, -2.380371, 4.028320, 3.967286
2066246, 0.300659, 0.804199, -0.532104, -0.976563, 4.760742, 3.295899
2066266, 0.329102, 0.802856, -0.536499, 0.366211, 0.549316, 0.610352
2066286, 0.286499, 0.800171, -0.552246, 0.488281, -1.647950, -1.220703
2066306, 0.257568, 0.800659, -0.549194, 0.732422, -1.159668, 0.183106
2066326, 0.274780, 0.800415, -0.549683, 0.610352, 0.000000, 0.976563
2066346, 0.270264, 0.802979, -0.541382, 1.098633, 0.305176, 1.464844
2066406, 0.267334, 0.796997, -0.557251, 0.671387, -1.403809, 0.366211
2066426, 0.267822, 0.797119, -0.563965, -0.305176, -0.793457, 1.403809
2066446, 0.257813, 0.798462, -0.554688, -0.915528, 0.244141, 3.112794
2066466, 0.282593, 0.802734, -0.534058, -0.122070, 0.976563, 4.638672
2066486, 0.313965, 0.800903, -0.543091, 0.549316, 0.671387, 2.929688
2066506, 0.312988, 0.795532, -0.552979, 0.854492, -0.183106, 1.037598
2066526, 0.303223, 0.794922, -0.561035, 0.183106, -1.831055, -0.427246
2066546, 0.276367, 0.797485, -0.552490, -0.305176, -2.258301, -0.366211
2066566, 0.240723, 0.796387, -0.556885, -0.854492, 1.525879, 2.502441
2066586, 0.242798, 0.796997, -0.553711, -1.281738, 5.615236, 5.981447
2066606, 0.299561, 0.797974, -0.545532, -1.220703, 7.385256, 7.446291
2066626, 0.345215, 0.795532, -0.544067, -0.976563, 3.906251, 5.371094
2066646, 0.348145, 0.796387, -0.542114, -0.671387, -0.061035, 1.953125
2066666, 0.340088, 0.795532, -0.547241, -0.671387, -4.150391, -1.159668
2066686, 0.321167, 0.795410, -0.552979, -1.037598, -5.981447, -3.234864
2066706, 0.305908, 0.795166, -0.550781, -1.586915, -7.202150, -4.516602
2066726, 0.287109, 0.798218, -0.547485, -1.708985, -7.324221, -4.577637
2066746, 0.259399, 0.801758, -0.534180, -0.366211, -4.943848, -2.441406
2066766, 0.272217, 0.801147, -0.542603, -0.061035, -2.441406, -1.220703
2066786, 0.272339, 0.803955, -0.537720, 0.488281, -0.488281, -0.610352
2066806, 0.280029, 0.801147, -0.539307, 1.342773, 0.488281, 0.305176
2066826, 0.312134, 0.798462, -0.552124, 1.647950, -0.305176, -0.366211
2066846, 0.298218, 0.798218, -0.554443, 0.854492, -1.525879, -2.197266
2066866, 0.273071, 0.799561, -0.550903, 0.366211, -0.976563, -1.770020
2066886, 0.266357, 0.802734, -0.541016, 0.671387, 0.366211, -0.671387
2066906, 0.276123, 0.802368, -0.539307, 1.464844, 1.464844, 0.854492
2066926, 0.304932, 0.797974, -0.551880, 1.647950, 0.122070, 0.488281
2066946, 0.286987, 0.797729, -0.558594, 0.671387, -2.868653, -0.549316
2066966, 0.296875, 0.794556, -0.562988, -0.488281, -2.563477, -0.915528
2066986, 0.296509, 0.798706, -0.551270, -1.037598, -2.685547, -1.892090
2067006, 0.284424, 0.801636, -0.543091, -0.793457, -2.258301, -2.380371
2067046, 0.270264, 0.805542, -0.534790, 1.037598, -1.770020, -1.647950
2067066, 0.281982, 0.803467, -0.538452, 2.197266, -1.403809, -1.159668
2067086, 0.269653, 0.800781, -0.547485, 2.563477, -0.976563, -0.854492
2067106, 0.274902, 0.798950, -0.558594, 2.258301, -0.183106, 0.122070
2067126, 0.286255, 0.798706, -0.552734, 1.647950, 0.122070, 0.122070
2067146, 0.297363, 0.799927, -0.553223, 1.647950, -0.488281, -0.732422
2067166, 0.290771, 0.797485, -0.557251, 1.220703, -1.220703, -1.770020
2067186, 0.287231, 0.797119, -0.556763, 0.793457, -1.403809, -2.258301
2067206, 0.275513, 0.801147, -0.545166, 0.915528, -0.366211, -2.685547
2067226, 0.255249, 0.801636, -0.546997, 1.220703, 1.464844, -1.647950
2067246, 0.271729, 0.798828, -0.552002, 1.831055, 1.831055, -0.061035
2067266, 0.286865, 0.796265, -0.554810, 1.586915, 0.122070, 0.061035
2067286, 0.295166, 0.795288, -0.558960, 1.342773, -1.220703, -0.610352
2067306, 0.283813, 0.798584, -0.556274, 0.915528, -3.051759, -1.098633
2067326, 0.239380, 0.799194, -0.555054, 0.854492, -0.549316, 1.037598
2067346, 0.264893, 0.797729, -0.558960, 0.610352, 1.403809, 2.990724
2067366, 0.288940, 0.796143, -0.561646, 0.000000, 1.342773, 3.112794
2067386, 0.301514, 0.798340, -0.549683, -0.061035, 0.488281, 2.258301
2067406, 0.305420, 0.800171, -0.545654, 0.305176, -0.915528, 0.122070
2067426, 0.260864, 0.801636, -0.540405, 1.525879, 0.000000, 0.244141
2067446, 0.257813, 0.797485, -0.548462, 2.197266, 2.441406, 2.075195
2067466, 0.293701, 0.792725, -0.567627, 1.831055, 3.723145, 2.685547
2067486, 0.323853, 0.789917, -0.574707, 0.122070, 1.708985, 0.732422
2067506, 0.328613, 0.795166, -0.554565, -1.525879, -3.967286, -3.173829
2067526, 0.311401, 0.799927, -0.541504, -1.098633, -7.019045, -5.432129
2067546, 0.277222, 0.801514, -0.539185, 0.122070, -8.056641, -5.981447
2067566, 0.242920, 0.800903, -0.543701, 0.793457, -6.164553, -4.577637
2067586, 0.235840, 0.801392, -0.550171, 1.586915, -3.051759, -1.892090
2067606, 0.247070, 0.799316, -0.552002, 2.014160, -0.549316, 0.488281
2067626, 0.270996, 0.797485, -0.557617, 2.197266, 0.488281, 1.403809
2067646, 0.275391, 0.795288, -0.569458, 1.525879, 1.159668, 1.525879
2067666, 0.288940, 0.792358, -0.572021, 0.244141, 0.915528, 1.159668
2067686, 0.294800, 0.795898, -0.562744, -0.549316, 0.061035, 0.000000
2067706, 0.282593, 0.801270, -0.543091, 0.122070, -1.037598, -0.915528
2067726, 0.259033, 0.799805, -0.547241, 0.854492, -0.793457, -0.610352
2067746, 0.242065, 0.798950, -0.553833, 1.342773, 1.953125, 1.770020
2067766, 0.261475, 0.797363, -0.554810, 1.403809, 3.784181, 3.540040
2067786, 0.290527, 0.795532, -0.558472, 1.403809, 3.479005, 4.028320
2067806, 0.304565, 0.794800, -0.560303, 1.037598, 1.342773, 2.990724
2067826, 0.292603, 0.795044, -0.564697, 0.366211, 0.000000, 1.831055
2067846, 0.288818, 0.793091, -0.560181, 0.122070, -0.061035, 2.014160
2067866, 0.299072, 0.793579, -0.557373, -0.427246, -0.671387, 1.159668
2067886, 0.288574, 0.797485, -0.548218, 0.000000, -1.403809, 0.366211
2067906, 0.277954, 0.797974, -0.545410, 0.732422, -0.915528, 0.427246
2067926, 0.278809, 0.794556, -0.557373, 1.159668, 0.244141, 1.159668
2067946, 0.288574, 0.791138, -0.566406, 0.305176, 0.366211, 1.159668
2067966, 0.290405, 0.792114, -0.560791, -0.183106, -0.305176, 1.220703
2067986, 0.285889, 0.795166, -0.551392, -0.183106, -1.037598, 1.220703
2068006, 0.288574, 0.794189, -0.556030, -0.122070, -0.244141, 1.159668
2068026, 0.287231, 0.795776, -0.551025, 0.061035, 0.244141, 1.159668
2068046, 0.300049, 0.795166, -0.553955, 0.488281, -0.061035, 1.037598
2068066, 0.287598, 0.794556, -0.556274, 0.305176, -1.342773, 0.427246
2068086, 0.274536, 0.795166, -0.549927, 0.488281, 0.122070, 2.380371
2068106, 0.279785, 0.792603, -0.556885, 0.793457, 1.464844, 3.234864
2068126, 0.293335, 0.793213, -0.558838, 0.305176, 2.319336, 3.234864
2068146, 0.293457, 0.793457, -0.550171, 0.488281, 2.319336, 3.234864
2068166, 0.301514, 0.791748, -0.553711, 0.793457, 2.014160, 3.112794
2068186, 0.284180, 0.792603, -0.552856, 0.671387, 2.624512, 2.929688
2068206, 0.284058, 0.791016, -0.555664, 0.732422, 5.920412, 4.028320
2068246, 0.347656, 0.788208, -0.559814, 0.366211, 1.770020, 2.502441
2068266, 0.310303, 0.788208, -0.553345, -0.122070, -1.831055, 0.610352
2068286, 0.303589, 0.791260, -0.554688, -0.366211, -1.647950, 0.305176
2068306, 0.279907, 0.793091, -0.544434, -0.061035, 0.427246, 0.976563
2068326, 0.303955, 0.790527, -0.549316, 0.488281, 1.586915, 2.136230
2068346, 0.314819, 0.791138, -0.551025, 0.671387, 0.915528, 1.586915
2068386, 0.314697, 0.790771, -0.547241, 0.671387, -1.464844, 0.915528
2068406, 0.320801, 0.791138, -0.546143, 0.976563, -2.807618, -0.244141
2068426, 0.298584, 0.788208, -0.556396, 1.342773, -3.173829, 0.061035
2068446, 0.320190, 0.783203, -0.574219, -0.122070, -3.662110, -0.122070
2068466, 0.290771, 0.796875, -0.531128, 0.183106, -4.760742, -0.427246
2068486, 0.263428, 0.795410, -0.533569, 2.319336, -2.075195, 1.464844
2068506, 0.279541, 0.786743, -0.559204, 3.051759, 0.610352, 4.211426
2068526, 0.314331, 0.785645, -0.565430, 2.136230, 1.281738, 4.333496
2068546, 0.326782, 0.784790, -0.557129, 1.586915, 0.610352, 3.112794
2068566, 0.338135, 0.786499, -0.550293, 2.197266, -0.549316, 1.464844
2068586, 0.342285, 0.782593, -0.562866, 2.075195, -1.953125, -1.098633
2068606, 0.317993, 0.782471, -0.566284, 1.403809, -2.197266, -2.563477
2068626, 0.332397, 0.781494, -0.564453, 0.244141, -1.892090, -3.784181
2068646, 0.338379, 0.790161, -0.543457, 1.831055, -6.713869, -7.934572
2068666, 0.283569, 0.786621, -0.562256, 2.075195, -9.277344, -7.873537
2068686, 0.230103, 0.780640, -0.583130, 0.671387, -5.371094, -4.821777
2068706, 0.238892, 0.778198, -0.597412, -1.464844, 0.793457, -0.427246
2068726, 0.288086, 0.785645, -0.572510, -4.028320, 4.089355, 1.403809
2068746, 0.322632, 0.791016, -0.551392, -3.967286, 2.624512, 0.610352
2068766, 0.335083, 0.794800, -0.536865, -2.868653, -0.427246, -1.342773
2068786, 0.299194, 0.793091, -0.545288, -1.464844, -2.502441, -3.417970
2068806, 0.249512, 0.787354, -0.573975, -2.014160, 0.305176, -0.854492
2068826, 0.271362, 0.782837, -0.589111, -4.516602, 3.051759, 1.098633
2068846, 0.279297, 0.789673, -0.568848, -6.469728, 4.211426, 3.479005
2068866, 0.298584, 0.802856, -0.512939, -5.004883, 8.666992, 3.540040
2068886, 0.368042, 0.799927, -0.516602, -2.319336, 8.056641, 0.793457
2068906, 0.438232, 0.792969, -0.543579, -0.915528, 2.258301, -6.530764
2068926, 0.348389, 0.787842, -0.578979, -3.356935, -7.812502, -13.244633
2068946, 0.257202, 0.793091, -0.569458, -5.676271, -6.713869, -12.084965
2068966, 0.268433, 0.797607, -0.556641, -7.568361, -2.868653, -10.192871
2069046, 0.284546, 0.817505, -0.508667, -7.141115, 2.563477, -7.995607
2069066, 0.291138, 0.827881, -0.482056, -3.967286, 1.281738, -9.338379
2069086, 0.253540, 0.830078, -0.488037, -0.427246, 1.464844, -8.911133
2069106, 0.235107, 0.825928, -0.506470, 2.014160, 4.272461, -6.530764
2069126, 0.250488, 0.821411, -0.511597, 2.929688, 5.615236, -4.211426
2069146, 0.271729, 0.824219, -0.502808, 4.760742, 5.004883, -3.295899
2069166, 0.284302, 0.820557, -0.515747, 6.347658, 4.333496, -3.479005
2069186, 0.275024, 0.812256, -0.551270, 6.347658, 0.610352, -3.356935
2069206, 0.226929, 0.806030, -0.570313, 3.356935, -0.183106, 0.915528
2069226, 0.243408, 0.808594, -0.554932, -0.976563, 4.699707, 4.516602
2069246, 0.296997, 0.816406, -0.519287, -1.342773, 4.821777, 5.065918
2069266, 0.354370, 0.821167, -0.503662, 0.305176, 0.244141, 1.037598
2069286, 0.331543, 0.817749, -0.513916, 2.136230, -4.394531, -3.601075
2069306, 0.276367, 0.812622, -0.534058, 2.441406, -6.042482, -5.187988
2069326, 0.255371, 0.811646, -0.549438, 1.464844, -5.859377, -4.028320
2069346, 0.239258, 0.811523, -0.545776, 0.061035, -3.906251, -2.075195
2069366, 0.264771, 0.815186, -0.534424, -0.488281, -2.014160, -0.671387
2069386, 0.279785, 0.818237, -0.524048, -0.183106, -2.868653, -1.159668
2069406, 0.274780, 0.819336, -0.520874, 1.281738, -4.394531, -2.014160
2069426, 0.267090, 0.817627, -0.530029, 1.831055, -4.272461, -2.197266
2069446, 0.269287, 0.812378, -0.541260, 1.831055, -4.333496, -2.197266
2069466, 0.252441, 0.813232, -0.544922, 0.793457, -4.760742, -1.953125
2069486, 0.260010, 0.813599, -0.541748, 0.305176, -3.845216, -0.915528
2069506, 0.272705, 0.816406, -0.532471, 0.061035, -3.906251, -1.770020
2069526, 0.271606, 0.815918, -0.532349, 0.549316, -4.272461, -2.441406
2069546, 0.261353, 0.815674, -0.537231, 0.488281, -4.455566, -2.990724
2069566, 0.243774, 0.816772, -0.539185, 0.488281, -3.784181, -2.502441
2069586, 0.237183, 0.815796, -0.539917, 0.305176, -1.464844, -0.671387
2069606, 0.249390, 0.818604, -0.533325, 0.488281, -0.732422, 0.122070
2069626, 0.246948, 0.819458, -0.527954, 1.098633, 0.122070, 0.732422
2069646, 0.261719, 0.818726, -0.534912, 1.525879, 0.549316, 0.793457
2069706, 0.249756, 0.813232, -0.547363, 0.976563, -0.244141, 0.488281
2069726, 0.255005, 0.813477, -0.543091, 0.549316, 0.915528, 1.281738
2069746, 0.282227, 0.816650, -0.535278, 0.610352, 0.061035, 0.305176
2069766, 0.264282, 0.816040, -0.533936, 0.976563, -0.671387, -0.915528
2069786, 0.255981, 0.813843, -0.541748, 1.098633, 0.671387, 0.061035
2069806, 0.281494, 0.814941, -0.536255, 1.037598, -0.549316, -0.488281
2069826, 0.285645, 0.813843, -0.540771, 1.159668, -3.112794, -2.319336
2069846, 0.264648, 0.814697, -0.539673, 1.220703, -4.882813, -3.295899
2069866, 0.246460, 0.815796, -0.535400, 1.403809, -4.760742, -2.929688
2069886, 0.252563, 0.817993, -0.534668, 1.953125, -4.455566, -2.380371
2069906, 0.245605, 0.813965, -0.546021, 2.014160, -2.990724, -2.319336
2069926, 0.270264, 0.816772, -0.556396, 1.464844, -4.150391, -4.394531
2069946, 0.249268, 0.819458, -0.525635, 2.014160, -4.943848, -4.150391
2069966, 0.257446, 0.813477, -0.545776, 2.441406, -6.225588, -4.516602
2069986, 0.200073, 0.811035, -0.565063, 1.464844, -2.258301, -2.136230
2070006, 0.215820, 0.810181, -0.553589, 0.061035, 1.464844, -0.183106
2070026, 0.261108, 0.815918, -0.532959, 0.671387, 2.746582, 1.098633
2070046, 0.309448, 0.816406, -0.536987, 1.831055, -1.342773, -1.953125
2070066, 0.258789, 0.813843, -0.549438, 2.014160, -5.065918, -4.882813
2070086, 0.221069, 0.811523, -0.562256, 1.281738, -4.394531, -3.967286
2070106, 0.224976, 0.812500, -0.557739, 0.122070, -1.525879, -2.990724
2070126, 0.251343, 0.815063, -0.545288, -0.061035, -0.610352, -3.295899
2070146, 0.242188, 0.818848, -0.539673, 0.427246, -2.075195, -3.845216
2070166, 0.225342, 0.816406, -0.546387, 1.342773, -2.136230, -3.601075
2070186, 0.212402, 0.816406, -0.552368, 1.220703, 0.671387, -2.990724
2070206, 0.197021, 0.814941, -0.553467, 0.915528, 4.577637, -1.159668
2070226, 0.197754, 0.813721, -0.558838, 0.122070, 6.774904, 1.220703
2070246, 0.172729, 0.815918, -0.552246, -0.427246, 10.742188, 5.065918
2070266, 0.216919, 0.816650, -0.544922, -0.427246, 14.770512, 8.239746
2070286, 0.253418, 0.818115, -0.537109, -0.183106, 15.747074, 8.361816
2070306, 0.271729, 0.817749, -0.526855, 1.098633, 15.319828, 7.324221
2070366, 0.262695, 0.811035, -0.536865, 1.953125, 11.047363, 7.019045
2070386, 0.327393, 0.810059, -0.534302, 2.502441, 8.544922, 4.882813
2070406, 0.335449, 0.807251, -0.541748, 2.868653, 2.990724, 0.671387
2070566, 0.248657, 0.813232, -0.540894, 0.122070, -6.713869, -5.004883
2070586, 0.235474, 0.813477, -0.538086, 0.976563, -5.920412, -4.211426
2070606, 0.220703, 0.812256, -0.548950, 1.342773, -4.150391, -2.319336
2070666, 0.261475, 0.813354, -0.544800, 0.427246, 1.831055, 1.831055
2070686, 0.263062, 0.812866, -0.545410, 0.671387, 0.732422, 1.037598
2070706, 0.260864, 0.810303, -0.547485, 0.854492, -0.488281, 0.793457
2070726, 0.248657, 0.810425, -0.551270, 0.549316, -0.305176, 0.793457
2070746, 0.264771, 0.810791, -0.550659, 0.183106, -0.244141, 0.244141
2070766, 0.256836, 0.811890, -0.545288, 0.305176, -0.732422, -0.305176
2070786, 0.243774, 0.810913, -0.548828, 0.305176, -0.854492, 0.000000
2070806, 0.248657, 0.808228, -0.555908, -0.061035, -0.488281, 0.915528
2070826, 0.257813, 0.810181, -0.550293, -0.793457, 0.000000, 0.549316
2070846, 0.266724, 0.812744, -0.539307, -0.244141, -0.183106, 0.183106
2070866, 0.275269, 0.814087, -0.539429, 0.366211, -2.380371, -1.098633
2070886, 0.248291, 0.809814, -0.551270, 0.610352, -2.624512, -1.647950
2070906, 0.237549, 0.809082, -0.555054, 0.000000, -1.281738, -0.793457
2070926, 0.255127, 0.811401, -0.546997, -0.366211, -0.305176, -0.122070
2070946, 0.266724, 0.813232, -0.538818, 0.061035, -1.098633, -0.793457
2071006, 0.248047, 0.812134, -0.548096, 0.976563, 0.183106, 0.122070
2071026, 0.258911, 0.811523, -0.549194, 0.793457, 0.061035, -0.244141
2071046, 0.257813, 0.810181, -0.551514, 0.671387, -1.159668, -0.488281
2071066, 0.249023, 0.810547, -0.551392, 0.305176, -1.403809, -0.549316
2071086, 0.248047, 0.811401, -0.548218, 0.305176, -0.732422, -0.366211
2071106, 0.256958, 0.813965, -0.544556, 0.854492, -0.793457, -0.732422
2071126, 0.243652, 0.810913, -0.549927, 0.976563, -1.403809, -0.610352
2071146, 0.246582, 0.810913, -0.554321, 0.549316, -0.976563, -0.061035
2071186, 0.260132, 0.813110, -0.545654, 0.305176, -0.854492, -0.549316
2071206, 0.261719, 0.810547, -0.547852, 0.427246, -1.708985, -1.281738
2071226, 0.255249, 0.811279, -0.549316, 0.488281, -2.868653, -1.831055
2071246, 0.237061, 0.812256, -0.550781, 0.366211, -2.990724, -1.708985
2071266, 0.229614, 0.811279, -0.552124, 0.183106, -1.098633, -0.549316
2071286, 0.247192, 0.812378, -0.549194, 0.183106, -0.183106, -0.061035
2071306, 0.246216, 0.811646, -0.548706, 0.366211, -0.732422, -0.366211
2071326, 0.240723, 0.812500, -0.547485, 0.488281, -0.488281, -0.061035
2071346, 0.244019, 0.812500, -0.548828, 0.549316, 0.061035, 0.305176
2071366, 0.252563, 0.811890, -0.546997, 0.671387, 0.549316, 0.183106
2071386, 0.242432, 0.812134, -0.548096, 0.915528, 0.427246, 0.122070
2071406, 0.241455, 0.810059, -0.555420, 0.793457, 0.732422, 0.915528
2071466, 0.268188, 0.812866, -0.544556, 0.549316, 0.183106, 0.000000
2071486, 0.254395, 0.812012, -0.549072, 1.037598, -1.159668, -0.610352
2071506, 0.246094, 0.807129, -0.559814, 0.549316, -1.770020, -0.610352
2071526, 0.239380, 0.808228, -0.555298, -0.122070, -0.854492, 0.183106
2071546, 0.255371, 0.812500, -0.547607, -0.427246, -0.061035, 0.305176
2071566, 0.263184, 0.812500, -0.543701, 0.061035, -1.098633, -0.610352
2071586, 0.247803, 0.812378, -0.547729, 0.488281, -2.075195, -0.793457
2071606, 0.226074, 0.811768, -0.551270, 0.305176, -0.732422, 0.000000
2071626, 0.233154, 0.810791, -0.550293, 0.122070, 1.525879, 1.464844
2071646, 0.257568, 0.813843, -0.543701, 0.427246, 2.197266, 1.525879
2071666, 0.270142, 0.810913, -0.543701, 0.793457, 0.915528, 0.671387
2071686, 0.247192, 0.810791, -0.555420, 0.732422, -1.403809, -0.549316
2071706, 0.232666, 0.810181, -0.551514, 0.366211, 0.366211, 0.793457
2071726, 0.272827, 0.810181, -0.542725, 0.732422, 0.305176, 0.854492
2071746, 0.307007, 0.811157, -0.549438, 0.915528, -3.601075, -2.075195
2071786, 0.216797, 0.810181, -0.552002, 1.098633, -4.821777, -2.929688
2071806, 0.204346, 0.808594, -0.564331, 0.366211, -1.342773, -0.793457
2071826, 0.213501, 0.808472, -0.554688, -0.366211, 2.136230, 2.441406
2071846, 0.270996, 0.808350, -0.555542, -0.671387, 1.647950, 2.502441
2071866, 0.262817, 0.812744, -0.544067, -1.098633, -0.854492, 0.122070
2071886, 0.257202, 0.815063, -0.528076, 0.061035, -2.014160, -0.244141
2071906, 0.276245, 0.812378, -0.546753, 1.281738, -3.601075, -1.403809
2071926, 0.251221, 0.809448, -0.561279, 0.549316, -4.272461, -3.051759
2071946, 0.196045, 0.812134, -0.555054, -0.061035, -1.464844, -1.220703
2071966, 0.182739, 0.812622, -0.548706, -0.244141, 3.479005, 2.929688
2071986, 0.246948, 0.813110, -0.534424, 0.793457, 5.981447, 5.920412
2072006, 0.317749, 0.812744, -0.549316, 1.342773, 2.563477, 2.563477
2072026, 0.256348, 0.810913, -0.546509, 1.403809, -0.183106, -0.061035
2072046, 0.220215, 0.809814, -0.547241, 1.403809, 1.403809, 1.708985
2072066, 0.309692, 0.804810, -0.563965, 2.197266, -0.915528, 0.427246
2072086, 0.275024, 0.802734, -0.577026, 0.671387, -3.967286, -2.502441
2072106, 0.217651, 0.804077, -0.570679, -1.647950, -2.807618, -1.708985
2072126, 0.217773, 0.811401, -0.548218, -2.136230, 0.671387, 0.915528
2072146, 0.249878, 0.813477, -0.529907, -1.220703, 2.502441, 2.258301
2072166, 0.323730, 0.817627, -0.508423, 1.464844, -1.892090, 0.732422
2072186, 0.397705, 0.811401, -0.544189, 3.540040, -12.573246, -7.202150
2072206, 0.300171, 0.804443, -0.570068, 2.685547, -19.531250, -14.709476
2072226, 0.206543, 0.804077, -0.576050, 1.098633, -18.737793, -15.197758
2072246, 0.094360, 0.812012, -0.550781, 0.061035, -6.286623, -4.760742
2072266, 0.142944, 0.813965, -0.565308, -0.549316, 2.624512, 1.953125
2072286, 0.137329, 0.814697, -0.557739, -1.159668, 10.986328, 7.141115
2072306, 0.186768, 0.816772, -0.532104, -0.061035, 16.906738, 12.512211
2072326, 0.302246, 0.816772, -0.534668, 1.831055, 16.235352, 11.779789
2072346, 0.317017, 0.806030, -0.561768, 1.892090, 9.216309, 6.591799
2072366, 0.224365, 0.804443, -0.569824, 0.427246, 7.751467, 5.798342
2072386, 0.211304, 0.805542, -0.564697, -1.037598, 12.023930, 9.155273
2072406, 0.286621, 0.804810, -0.554688, -1.525879, 13.854984, 9.887695
2072426, 0.363892, 0.802002, -0.555786, -2.563477, 9.155273, 5.126953
2072446, 0.355835, 0.808838, -0.538574, -2.136230, -4.272461, -4.699707
2072466, 0.268311, 0.808594, -0.546387, -2.319336, -7.568361, -7.263186
2072486, 0.237671, 0.807251, -0.552246, -2.807618, -5.187988, -6.225588
2072506, 0.226196, 0.813354, -0.537476, -2.685547, -1.586915, -4.211426
2072526, 0.242920, 0.812988, -0.536987, -2.563477, -0.183106, -2.502441
2072546, 0.268066, 0.817749, -0.525635, -1.403809, 0.549316, -2.258301
2072566, 0.283936, 0.819458, -0.521973, 0.000000, -0.671387, -3.967286
2072586, 0.248291, 0.816406, -0.535034, 1.159668, -1.464844, -4.577637
2072606, 0.224976, 0.814453, -0.548706, 0.915528, -0.976563, -2.441406
2072626, 0.223145, 0.812988, -0.548462, -0.488281, -1.647950, 2.197266
2072646, 0.219238, 0.812256, -0.547729, -0.854492, -1.037598, 5.187988
2072666, 0.229858, 0.815552, -0.536255, -0.854492, 0.305176, 7.690432
2072686, 0.271118, 0.815796, -0.527588, 0.000000, 0.854492, 8.666992
2072706, 0.317017, 0.816040, -0.520630, 1.525879, -2.807618, 6.347658
2072726, 0.344238, 0.810913, -0.533081, 2.746582, -10.375977, 2.563477
2072746, 0.320435, 0.809448, -0.544556, 2.868653, -18.676758, -2.014160
2072766, 0.265503, 0.808350, -0.549072, 2.685547, -22.521980, -3.295899
2072786, 0.223999, 0.808350, -0.554565, 2.502441, -21.911621, -2.685547
2072806, 0.143066, 0.808716, -0.563477, 1.403809, -15.686039, 1.647950
2072826, 0.163330, 0.809082, -0.557251, 0.366211, 1.098633, 11.779789
2072846, 0.217896, 0.812988, -0.528931, 1.220703, 9.155273, 14.648441
2072866, 0.281250, 0.813110, -0.526245, 3.540040, 10.620117, 14.465336
2072886, 0.331177, 0.803467, -0.540894, 5.432129, 4.821777, 12.451176
2072906, 0.325684, 0.794312, -0.583862, 3.784181, 0.732422, 7.080080
2072926, 0.272705, 0.791260, -0.583618, 1.342773, 0.854492, 5.737307
2072946, 0.286987, 0.798584, -0.568970, -0.732422, 3.540040, 4.272461
2072966, 0.285400, 0.801270, -0.548584, -0.610352, 5.859377, 2.929688
2072986, 0.310791, 0.802490, -0.531616, 0.549316, 6.713869, 1.342773
2073006, 0.350098, 0.802734, -0.525513, 2.868653, -3.112794, -3.845216
2073026, 0.335449, 0.796387, -0.564697, 3.479005, -10.314941, -7.324221
2073046, 0.280762, 0.786621, -0.607422, 0.366211, -16.357422, -9.338379
2073066, 0.201416, 0.783813, -0.613525, -4.699707, -14.160160, -6.469728
2073086, 0.200073, 0.798706, -0.569458, -7.263186, -9.155273, -1.464844
2073106, 0.236450, 0.811157, -0.531494, -7.202150, -3.662110, 0.732422
2073126, 0.279419, 0.813232, -0.516724, -4.272461, -1.586915, 0.305176
2073146, 0.306030, 0.815308, -0.518555, -1.037598, -7.507326, -1.281738
2073166, 0.243286, 0.805664, -0.569214, -1.098633, -14.282230, -1.464844
2073186, 0.199951, 0.801758, -0.574707, -2.990724, -9.582520, 1.953125
2073206, 0.239014, 0.811523, -0.531494, -3.051759, 0.000000, 3.295899
2073226, 0.262085, 0.817139, -0.519165, -0.793457, 3.601075, 3.112794
2073246, 0.289551, 0.813110, -0.532593, 1.281738, 2.929688, 1.403809
2073266, 0.279175, 0.812988, -0.530151, 2.868653, 1.281738, -0.183106
2073286, 0.299316, 0.804199, -0.553101, 3.540040, -1.708985, -1.770020
2073306, 0.293091, 0.803223, -0.573364, 2.258301, -5.187988, -4.760742
2073326, 0.234497, 0.799194, -0.583130, 0.000000, -4.577637, -4.821777
2073346, 0.234985, 0.804932, -0.563721, -1.831055, -1.770020, -3.662110
2073366, 0.214355, 0.808716, -0.550049, -2.014160, 0.610352, -1.770020
2073386, 0.244385, 0.809204, -0.556274, -2.136230, 4.455566, 0.793457
2073406, 0.252075, 0.806641, -0.558472, -2.868653, 7.141115, 0.976563
2073426, 0.287842, 0.802490, -0.572021, -4.455566, 7.263186, -0.488281
2073446, 0.300049, 0.808838, -0.554321, -5.798342, 6.042482, -3.295899
2073466, 0.297852, 0.809937, -0.552490, -6.896975, 3.845216, -6.347658
2073486, 0.266846, 0.809570, -0.556030, -7.995607, 4.699707, -8.544922
2073506, 0.254761, 0.811646, -0.563232, -9.948730, 6.713869, -9.521484
2073526, 0.258179, 0.815308, -0.553467, -12.207035, 11.962894, -10.192871
2073546, 0.300903, 0.821167, -0.535156, -13.549809, 12.146000, -13.183598
2073566, 0.299072, 0.830811, -0.508179, -13.244633, 11.169437, -16.906738
2073586, 0.302490, 0.838257, -0.495361, -11.657719, 3.295899, -23.681648
2073666, 0.273560, 0.868408, -0.427490, -0.122070, 8.666992, -14.526371
2073686, 0.250366, 0.866211, -0.434814, 5.920412, -3.173829, -17.211914
2073706, 0.169800, 0.863281, -0.445190, 11.108402, -9.155273, -13.854984
2073726, 0.170654, 0.854492, -0.478760, 14.709476, -11.779789, -9.704590
2073746, 0.169067, 0.848511, -0.497925, 16.662598, -9.887695, -6.835939
2073766, 0.189941, 0.833496, -0.555786, 15.258793, -8.789063, -5.249023
2073786, 0.161011, 0.826294, -0.576416, 11.352543, -8.483887, -3.479005
2073806, 0.149048, 0.825806, -0.572754, 7.507326, -5.126953, -0.488281
2073826, 0.184692, 0.830078, -0.557129, 4.821777, -2.563477, 1.403809
2073846, 0.227661, 0.834839, -0.538330, 3.540040, -3.112794, -0.183106
2073866, 0.216553, 0.836792, -0.531372, 3.723145, -4.638672, -2.746582
2073886, 0.206299, 0.833496, -0.551392, 3.417970, -5.432129, -4.150391
2073906, 0.145630, 0.826904, -0.571655, 1.037598, -3.662110, -3.662110
2073926, 0.075439, 0.826416, -0.572998, -2.258301, 2.990724, 1.708985
2073946, 0.037354, 0.834839, -0.539917, -3.967286, 14.465336, 11.413578
2073966, 0.273438, 0.839844, -0.505493, -1.892090, 20.507813, 16.052246
2073986, 0.331909, 0.841797, -0.501709, 0.671387, 9.216309, 9.033203
2074006, 0.277588, 0.838501, -0.511475, 2.563477, 0.122070, 3.662110
2074026, 0.253052, 0.833008, -0.529419, 3.417970, -3.906251, 0.671387
2074046, 0.194824, 0.830444, -0.537354, 3.234864, -2.441406, -0.427246
2074066, 0.193237, 0.829224, -0.542114, 2.624512, 1.464844, 1.403809
2074086, 0.245483, 0.827393, -0.545410, 1.770020, 0.732422, 0.915528
2074106, 0.266602, 0.828247, -0.540649, 0.915528, -3.845216, -1.770020
2074126, 0.234009, 0.830444, -0.545044, 0.244141, -7.873537, -4.272461
2074146, 0.185181, 0.832153, -0.531738, 0.000000, -5.493164, -2.624512
2074166, 0.181641, 0.835571, -0.522461, 0.732422, -2.380371, -1.464844
2074186, 0.194336, 0.832520, -0.529297, 1.525879, -0.732422, 0.061035
2074206, 0.195435, 0.836426, -0.525269, 2.319336, -0.671387, 0.793457
2074226, 0.195557, 0.835693, -0.527344, 3.295899, -0.122070, 2.136230
2074246, 0.213013, 0.831543, -0.528564, 4.211426, -0.549316, 2.563477
2074266, 0.211548, 0.828613, -0.539917, 4.577637, -1.159668, 2.258301
2074286, 0.209961, 0.824829, -0.548706, 3.967286, -0.793457, 2.380371
2074306, 0.203979, 0.822876, -0.553101, 3.295899, 0.366211, 2.502441
2074326, 0.225220, 0.821899, -0.559082, 2.014160, 1.037598, 2.075195
2074346, 0.217163, 0.824829, -0.544556, 0.610352, 0.610352, 0.610352
2074366, 0.211914, 0.827881, -0.536255, 0.915528, 0.732422, 0.671387
2074386, 0.229614, 0.825684, -0.540283, 1.464844, 0.000000, 0.549316
2074406, 0.239258, 0.826904, -0.543213, 1.586915, -1.586915, -1.159668
2074426, 0.223633, 0.823242, -0.549438, 1.281738, -3.051759, -2.319336
2074446, 0.211426, 0.823364, -0.552856, 0.671387, -3.479005, -2.319336
2074466, 0.208618, 0.826782, -0.541382, 0.366211, -3.173829, -2.197266
2074486, 0.205811, 0.826416, -0.537842, 0.915528, -2.685547, -1.953125
2074506, 0.193970, 0.827881, -0.545288, 1.342773, -2.014160, -1.159668
2074526, 0.201782, 0.820557, -0.556885, 0.427246, -0.671387, 0.427246
2074546, 0.207397, 0.823242, -0.551758, -0.305176, -0.732422, 0.854492
2074566, 0.211548, 0.823975, -0.550537, -0.793457, -0.915528, 0.732422
2074586, 0.204102, 0.826660, -0.540771, -0.854492, -0.244141, 0.915528
2074606, 0.197388, 0.828979, -0.531860, -0.122070, 0.793457, 1.464844
2074646, 0.188232, 0.826172, -0.541748, 1.647950, 3.601075, 3.967286
2074666, 0.189209, 0.822754, -0.549438, 1.525879, 5.554201, 5.981447
2074686, 0.212524, 0.819092, -0.558472, 0.671387, 6.958010, 7.019045
2074706, 0.235107, 0.820313, -0.555420, -0.549316, 6.530764, 6.652834
2074726, 0.275757, 0.821655, -0.540771, -1.342773, 3.845216, 3.540040
2074746, 0.290161, 0.824707, -0.535400, -1.098633, -0.854492, -0.366211
2074766, 0.282349, 0.826782, -0.529053, -0.183106, -5.859377, -4.150391
2074787, 0.253662, 0.826538, -0.529053, 0.854492, -9.338379, -7.019045
2074807, 0.209473, 0.825684, -0.538330, 1.647950, -9.704590, -7.446291
2074827, 0.185303, 0.824463, -0.545776, 1.525879, -7.873537, -5.981447
2074847, 0.165527, 0.821655, -0.554077, 1.037598, -4.760742, -3.234864
2074867, 0.160278, 0.822876, -0.553589, 0.366211, -0.366211, 0.183106
2074887, 0.201660, 0.822144, -0.551270, -0.793457, 4.455566, 3.784181
2074907, 0.231079, 0.824463, -0.542847, -1.098633, 4.333496, 3.479005
2074927, 0.233398, 0.826050, -0.537842, -0.793457, 3.173829, 2.441406
2074967, 0.249146, 0.826538, -0.535645, 0.549316, -0.183106, -1.403809
2074987, 0.216919, 0.826416, -0.536133, 1.159668, -1.159668, -2.014160
2075007, 0.205688, 0.823975, -0.544800, 1.281738, -0.671387, -1.159668
2075027, 0.200684, 0.823608, -0.542969, 1.220703, 0.366211, 0.122070
2075047, 0.209961, 0.824707, -0.544434, 1.220703, 1.525879, 1.037598
2075067, 0.219116, 0.822876, -0.548218, 0.854492, 1.770020, 1.525879
2075087, 0.243042, 0.821777, -0.546875, 0.183106, 0.000000, 0.793457
2075107, 0.245728, 0.821899, -0.545532, 0.000000, -1.953125, -0.854492
2075127, 0.231812, 0.824341, -0.541748, -0.244141, -3.234864, -1.953125
2075147, 0.220581, 0.824951, -0.539185, 0.061035, -3.112794, -2.258301
2075167, 0.220947, 0.826294, -0.537598, 0.488281, -3.173829, -2.441406
2075187, 0.197266, 0.825195, -0.541870, 0.793457, -2.197266, -2.014160
2075207, 0.182617, 0.822266, -0.545288, 0.793457, 0.000000, 0.183106
2075227, 0.201660, 0.825073, -0.552246, 0.305176, 1.831055, 1.892090
2075247, 0.206665, 0.824341, -0.547241, -0.183106, 2.746582, 2.807618
2075287, 0.253174, 0.824219, -0.539551, 0.488281, -0.488281, 0.671387
2075307, 0.250000, 0.823853, -0.543457, 0.610352, -2.807618, -1.281738
2075327, 0.227417, 0.824707, -0.543335, 0.488281, -3.662110, -2.319336
2075347, 0.218384, 0.822876, -0.545532, 0.488281, -3.540040, -2.563477
2075367, 0.207153, 0.824341, -0.546021, 0.244141, -3.051759, -2.014160
2075387, 0.210205, 0.825317, -0.544067, 0.061035, -2.014160, -1.403809
2075407, 0.215332, 0.824585, -0.540771, 0.305176, -1.892090, -1.037598
2075427, 0.219604, 0.823975, -0.543091, 0.427246, -2.258301, -0.976563
2075447, 0.222290, 0.824585, -0.543335, 0.549316, -2.502441, -1.525879
2075467, 0.210693, 0.824829, -0.543823, 0.549316, -2.197266, -1.647950
2075487, 0.214355, 0.823486, -0.546753, 0.488281, -2.319336, -1.403809
2075507, 0.208984, 0.825439, -0.541504, 0.671387, -2.685547, -1.220703
2075527, 0.209351, 0.825195, -0.544678, 0.854492, -2.197266, -0.793457
2075547, 0.217529, 0.824707, -0.549805, 0.671387, -2.197266, -1.098633
2075567, 0.210815, 0.824951, -0.545776, 0.610352, -2.380371, -1.098633
2075587, 0.213501, 0.823730, -0.547729, 0.549316, -3.112794, -1.220703
2075607, 0.185181, 0.824829, -0.546387, 0.366211, -2.075195, -0.610352
2075627, 0.187622, 0.824707, -0.548584, 0.305176, -0.244141, 1.586915
2075647, 0.217651, 0.825073, -0.543335, -0.061035, 0.610352, 1.647950
2075667, 0.226685, 0.824707, -0.548218, 0.061035, 0.061035, 0.732422
2075687, 0.212769, 0.825317, -0.541260, 0.122070, -0.671387, 0.183106
2075707, 0.202271, 0.825317, -0.544189, 0.488281, -0.122070, 0.671387
2075727, 0.195923, 0.825928, -0.550171, 0.366211, 1.281738, 1.464844
2075747, 0.191528, 0.824463, -0.545532, 0.244141, 3.417970, 2.990724
2075767, 0.220459, 0.823853, -0.546143, 0.244141, 3.356935, 3.723145
2075787, 0.214478, 0.819214, -0.553223, -0.183106, 2.136230, 3.479005
2075807, 0.208008, 0.823730, -0.551880, -0.976563, 3.356935, 4.394531
2075827, 0.241699, 0.820801, -0.552856, -1.831055, 3.784181, 3.967286
2075847, 0.248901, 0.823120, -0.540283, -2.441406, 0.915528, 0.915528
2075867, 0.243164, 0.824463, -0.543701, -2.319336, -1.342773, -0.305176
2075887, 0.215820, 0.826294, -0.537354, -2.258301, -0.610352, -0.854492
2075907, 0.224854, 0.826050, -0.535767, -2.197266, 0.732422, -0.549316
2075927, 0.245483, 0.825562, -0.536743, -1.770020, -0.366211, -1.464844
2075947, 0.237305, 0.830444, -0.527466, -1.464844, -3.051759, -2.319336
2075967, 0.235596, 0.830200, -0.524414, -0.366211, -4.150391, -3.051759
2075987, 0.245239, 0.829712, -0.531250, 0.671387, -5.187988, -4.638672
2076007, 0.222290, 0.830322, -0.534546, 0.915528, -5.676271, -5.859377
2076027, 0.204590, 0.827148, -0.541626, 1.159668, -4.577637, -5.615236
2076047, 0.193115, 0.827393, -0.545654, 0.793457, -4.150391, -4.516602
2076067, 0.178345, 0.828857, -0.542480, 0.366211, -2.685547, -2.807618
2076087, 0.186890, 0.828369, -0.542114, 0.183106, -0.549316, -0.671387
2076107, 0.203369, 0.828247, -0.540649, 0.061035, 0.305176, 0.000000
2076127, 0.202881, 0.828613, -0.540527, 0.122070, 0.793457, 0.488281
2076147, 0.208008, 0.828979, -0.539063, -0.061035, 1.159668, 0.671387
2076167, 0.209229, 0.829712, -0.537598, 0.244141, 1.464844, 0.854492
2076187, 0.218018, 0.829956, -0.534912, 0.549316, 1.525879, 0.549316
2076207, 0.215332, 0.830688, -0.534790, 0.976563, 1.037598, 0.061035
2076227, 0.212036, 0.829834, -0.536499, 1.403809, 1.098633, 0.366211
2076247, 0.217041, 0.829712, -0.538818, 1.525879, 0.671387, 0.061035
2076267, 0.202393, 0.827637, -0.540649, 1.464844, 0.915528, 0.366211
2076287, 0.206299, 0.827026, -0.541138, 1.464844, 1.953125, 1.098633
2076307, 0.211670, 0.826050, -0.544434, 1.159668, 2.319336, 1.220703
2076327, 0.208008, 0.827026, -0.542480, 0.915528, 2.563477, 1.770020
2076347, 0.215576, 0.826172, -0.540405, 0.793457, 2.807618, 2.014160
2076367, 0.222900, 0.825562, -0.541504, 0.732422, 2.258301, 1.892090
2076387, 0.216187, 0.826904, -0.539551, 0.671387, 1.892090, 1.892090
2076407, 0.225098, 0.826172, -0.538574, 0.793457, 2.441406, 2.136230
2076427, 0.241455, 0.825195, -0.540894, 0.793457, 1.525879, 1.098633
2076447, 0.237549, 0.825684, -0.539063, 0.732422, -0.366211, 0.122070
2076467, 0.223267, 0.824707, -0.544434, 0.488281, -1.159668, -0.305176
2076487, 0.212891, 0.825684, -0.536499, 0.549316, -1.037598, 0.183106
2076507, 0.216675, 0.826904, -0.536865, 0.915528, -0.854492, 0.793457
2076527, 0.225464, 0.825562, -0.537598, 0.976563, -0.976563, 0.976563
2076547, 0.223633, 0.827148, -0.533325, 1.464844, -0.854492, 0.732422
2076567, 0.228271, 0.827881, -0.526733, 2.441406, -1.525879, 0.854492
2076587, 0.244751, 0.825195, -0.531860, 3.601075, -4.150391, 0.122070
2076607, 0.217651, 0.819702, -0.559082, 3.051759, -4.882813, -0.915528
2076627, 0.210205, 0.817505, -0.563599, 1.708985, -2.502441, -0.488281
2076647, 0.198975, 0.817505, -0.562988, 0.061035, -0.488281, 0.122070
2076667, 0.193237, 0.819580, -0.558105, -1.220703, 1.831055, 2.014160
2076687, 0.205811, 0.824951, -0.536255, -1.281738, 3.845216, 3.601075
2076707, 0.236450, 0.828979, -0.520996, 0.000000, 3.906251, 3.723145
2076727, 0.259521, 0.824707, -0.533936, 1.525879, 1.403809, 2.075195
2076747, 0.250977, 0.820801, -0.549683, 1.525879, -1.220703, 0.122070
2076767, 0.225220, 0.817261, -0.562500, 0.427246, -1.953125, -0.427246
2076787, 0.223145, 0.821167, -0.540527, -0.854492, -0.610352, 0.427246
2076807, 0.253174, 0.824829, -0.532349, -0.061035, -1.342773, -0.549316
2076827, 0.260376, 0.824585, -0.536133, 0.732422, -4.333496, -2.563477
2076847, 0.252930, 0.824097, -0.537842, 1.281738, -7.019045, -4.699707
2076867, 0.231567, 0.821533, -0.547974, 1.342773, -8.605957, -6.042482
2076887, 0.198730, 0.822388, -0.549683, 0.976563, -7.507326, -5.859377
2076907, 0.180664, 0.820923, -0.553833, 0.427246, -5.004883, -3.967286
2076927, 0.185181, 0.823608, -0.548706, 0.122070, -2.136230, -1.770020
2076947, 0.195313, 0.822998, -0.549683, -0.183106, -0.366211, -0.610352
2076967, 0.189209, 0.824585, -0.543701, -0.122070, 1.342773, 0.854492
2076987, 0.222290, 0.824707, -0.543701, 0.122070, 2.807618, 1.281738
2077007, 0.224121, 0.824097, -0.545044, 0.244141, 1.953125, 0.854492
2077027, 0.230835, 0.824707, -0.543945, 0.305176, 1.403809, 0.000000
2077047, 0.228271, 0.822876, -0.548340, 0.122070, 0.549316, -1.098633
2077067, 0.218994, 0.824707, -0.545898, 0.122070, 0.366211, -1.525879
2077087, 0.218628, 0.824219, -0.542725, 0.122070, -0.305176, -1.586915
2077107, 0.216309, 0.824341, -0.543579, 0.244141, -0.671387, -1.586915
2077127, 0.217407, 0.823486, -0.548462, 0.305176, -1.342773, -1.708985
2077147, 0.208008, 0.823242, -0.548096, -0.122070, -1.647950, -1.464844
2077167, 0.206421, 0.824341, -0.545654, -0.488281, -0.610352, -0.366211
2077187, 0.206421, 0.825562, -0.541138, -0.366211, 0.122070, 0.122070
2077207, 0.216797, 0.826538, -0.540894, 0.000000, 0.488281, 0.305176
2077227, 0.224121, 0.826416, -0.538452, 0.366211, -0.122070, -0.244141
2077247, 0.217285, 0.825806, -0.540527, 0.854492, -0.793457, -0.610352
2077267, 0.204834, 0.823975, -0.545654, 0.915528, -0.610352, -0.488281
2077287, 0.191162, 0.824585, -0.547363, 0.732422, 1.281738, 0.671387
2077307, 0.208008, 0.822510, -0.550781, 0.427246, 2.990724, 1.525879
2077327, 0.219116, 0.822632, -0.548462, -0.061035, 2.746582, 1.647950
2077347, 0.224976, 0.823975, -0.544556, -0.244141, 1.708985, 1.403809
2077367, 0.226318, 0.826660, -0.537842, 0.061035, 0.183106, 0.732422
2077387, 0.223022, 0.825684, -0.538208, 0.671387, -0.122070, 0.427246
2077407, 0.231079, 0.823730, -0.540283, 0.854492, -0.854492, -0.244141
2077427, 0.226807, 0.825806, -0.543457, 0.915528, -1.708985, -0.976563
2077447, 0.211060, 0.824829, -0.544922, 1.159668, -1.464844, -1.098633
2077467, 0.208496, 0.821899, -0.549438, 0.549316, -0.427246, -0.488281
2077487, 0.203613, 0.824219, -0.544434, 0.488281, 0.671387, 0.244141
2077507, 0.202637, 0.825073, -0.543701, 0.488281, 2.197266, 1.342773
2077527, 0.214844, 0.824585, -0.543823, 0.549316, 2.807618, 2.197266
2077547, 0.226685, 0.822021, -0.544800, 0.671387, 2.624512, 2.014160
2077607, 0.233032, 0.822144, -0.548828, -0.061035, -3.051759, -1.770020
2077627, 0.215942, 0.823120, -0.543457, -0.061035, -2.868653, -1.892090
2077647, 0.211182, 0.822632, -0.543823, -0.122070, -2.014160, -1.403809
2077667, 0.210205, 0.823853, -0.544922, -0.305176, -1.281738, -0.610352
2077687, 0.225220, 0.825562, -0.539795, -0.061035, -1.586915, -0.488281
2077707, 0.220337, 0.823730, -0.543457, 0.061035, -2.075195, -0.854492
2077727, 0.214844, 0.823486, -0.542969, 0.000000, -1.525879, -0.671387
2077747, 0.222046, 0.823975, -0.543091, -0.122070, -1.525879, -0.854492
2077767, 0.210327, 0.824707, -0.544067, -0.183106, -1.464844, -0.610352
2077787, 0.209351, 0.825317, -0.541870, -0.061035, -0.610352, 0.061035
2077807, 0.213989, 0.824951, -0.541138, 0.061035, 0.000000, 0.305176
2077827, 0.220093, 0.823608, -0.542236, 0.183106, -0.122070, 0.488281
2077847, 0.228149, 0.824707, -0.543457, 0.183106, -0.732422, -0.061035
2077867, 0.221802, 0.826416, -0.542358, 0.183106, -1.281738, -0.427246
2077887, 0.212769, 0.825806, -0.542480, 0.244141, -1.098633, -0.366211
2077907, 0.215698, 0.824463, -0.544556, 0.183106, -0.488281, -0.122070
2077927, 0.219971, 0.825073, -0.542603, -0.061035, -0.488281, -0.305176
2077947, 0.225464, 0.825195, -0.542358, 0.000000, -1.159668, -0.488281
2077967, 0.225220, 0.825806, -0.543457, 0.122070, -2.075195, -0.915528
2077987, 0.223999, 0.825073, -0.542847, 0.000000, -2.502441, -1.342773
2078007, 0.223145, 0.825806, -0.543579, -0.061035, -2.929688, -1.831055
2078027, 0.219604, 0.826904, -0.542114, 0.061035, -3.295899, -2.197266
2078047, 0.209473, 0.826782, -0.543823, 0.061035, -3.479005, -2.258301
2078067, 0.196045, 0.825806, -0.540649, 0.183106, -2.441406, -1.403809
2078087, 0.205566, 0.827026, -0.542725, 0.305176, -1.586915, -0.427246
2078107, 0.208740, 0.825562, -0.543091, 0.427246, -0.793457, -0.305176
2078127, 0.209473, 0.827148, -0.542114, 0.427246, -0.793457, -0.244141
2078147, 0.207153, 0.826904, -0.544434, 0.488281, -0.305176, 0.061035
2078167, 0.209229, 0.825439, -0.545776, 0.244141, 0.061035, 0.305176
2078187, 0.208496, 0.826538, -0.540039, 0.305176, 0.244141, 0.610352
2078207, 0.222046, 0.826294, -0.541992, 0.305176, -0.122070, 0.488281
2078227, 0.224365, 0.825439, -0.545654, 0.366211, -0.732422, -0.244141
2078247, 0.218384, 0.827026, -0.541504, 0.244141, -1.525879, -1.037598
2078267, 0.207153, 0.825562, -0.542603, 0.427246, -1.647950, -0.854492
2078287, 0.202026, 0.826050, -0.546631, 0.183106, -0.976563, -0.366211
2078307, 0.204102, 0.827148, -0.543701, 0.000000, 0.244141, 0.732422
2078327, 0.207886, 0.826660, -0.541870, 0.061035, 0.671387, 1.159668
2078347, 0.202881, 0.826050, -0.543701, 0.122070, 1.525879, 1.708985
2078367, 0.218628, 0.826416, -0.540405, 0.000000, 1.892090, 2.014160
2078387, 0.227051, 0.826172, -0.540405, 0.305176, 1.098633, 1.342773
2078407, 0.224487, 0.826904, -0.538208, 0.488281, 0.427246, 0.732422
2078427, 0.221802, 0.827026, -0.541992, 0.732422, -0.366211, 0.305176
2078447, 0.218750, 0.823975, -0.545654, 0.549316, -0.610352, 0.183106
2078467, 0.217651, 0.824585, -0.544556, 0.305176, -0.671387, 0.000000
2078487, 0.211914, 0.823364, -0.545410, 0.061035, -0.244141, 0.305176
2078507, 0.215454, 0.825928, -0.538452, 0.183106, -0.305176, 0.061035
2078527, 0.210327, 0.823486, -0.545288, 0.061035, 0.610352, 0.610352
2078547, 0.222412, 0.826660, -0.542358, 0.061035, 0.244141, 0.549316
2078567, 0.226318, 0.823853, -0.542603, -0.061035, -0.549316, 0.244141
2078587, 0.245117, 0.826294, -0.536499, 0.183106, -2.136230, -0.976563
2078607, 0.227539, 0.826904, -0.536987, 0.610352, -3.845216, -2.502441
2078627, 0.206055, 0.825317, -0.542480, 0.793457, -3.295899, -2.319336
2078647, 0.193726, 0.825439, -0.546875, 0.671387, -1.953125, -1.403809
2078667, 0.188721, 0.825195, -0.545898, 0.244141, 0.061035, 0.305176
2078687, 0.213623, 0.826416, -0.541626, 0.122070, 1.525879, 1.892090
2078707, 0.221802, 0.827026, -0.538086, 0.366211, 1.281738, 1.525879
2078727, 0.222290, 0.826660, -0.537842, 0.671387, 0.793457, 1.281738
2078747, 0.224243, 0.824463, -0.545288, 0.671387, 0.488281, 0.793457
2078767, 0.217773, 0.824951, -0.545654, 0.366211, 0.610352, 0.610352
2078787, 0.214966, 0.825684, -0.543213, 0.122070, 0.793457, 0.732422
2078807, 0.217896, 0.824341, -0.540405, 0.122070, 1.098633, 1.037598
2078827, 0.229126, 0.826050, -0.541626, 0.183106, 0.427246, 0.793457
2078847, 0.229736, 0.825562, -0.541992, 0.122070, -0.366211, 0.122070
2078867, 0.223267, 0.826294, -0.541260, 0.122070, -0.671387, -0.427246
2078907, 0.215942, 0.826782, -0.538574, 0.244141, -0.976563, -0.061035
2078927, 0.214966, 0.825439, -0.540161, 0.366211, -0.305176, 0.183106
2078947, 0.220947, 0.826172, -0.542114, 0.305176, 0.000000, 0.366211
2078967, 0.220947, 0.824829, -0.540405, 0.366211, -0.244141, 0.366211
2078987, 0.231201, 0.824463, -0.538574, 0.488281, -0.915528, 0.061035
2079007, 0.241333, 0.825317, -0.541626, 0.610352, -2.014160, -1.220703
2079027, 0.222046, 0.825928, -0.541748, 0.549316, -3.051759, -2.014160
2079047, 0.210083, 0.824951, -0.543213, 0.549316, -2.807618, -1.647950
2079067, 0.200439, 0.825073, -0.543457, 0.183106, -1.220703, -0.427246
2079087, 0.212280, 0.826294, -0.542114, 0.244141, 0.061035, 0.366211
2079107, 0.218872, 0.824097, -0.540039, 0.244141, 0.183106, 0.366211
2079127, 0.220581, 0.825439, -0.541626, 0.305176, 0.000000, 0.244141
2079147, 0.222290, 0.825317, -0.543335, 0.305176, -0.183106, 0.061035
2079167, 0.224976, 0.824829, -0.541260, 0.305176, -0.732422, -0.366211
2079187, 0.215820, 0.825806, -0.541138, 0.366211, -0.915528, -0.427246
2079207, 0.213501, 0.826172, -0.541626, 0.427246, -0.549316, -0.183106
2079227, 0.214600, 0.825439, -0.541870, 0.488281, -0.122070, 0.244141
2079247, 0.223511, 0.824341, -0.544678, 0.183106, -0.488281, 0.061035
2079267, 0.227661, 0.825439, -0.542358, -0.061035, -0.915528, -0.488281
2079287, 0.224121, 0.826660, -0.539307, 0.061035, -1.647950, -1.037598
2079307, 0.211304, 0.827271, -0.539307, 0.305176, -1.220703, -1.037598
2079327, 0.207275, 0.826294, -0.538574, 0.549316, -0.427246, -0.305176
2079347, 0.217041, 0.823730, -0.544800, 0.671387, -0.244141, 0.122070
2079367, 0.225586, 0.825439, -0.544800, 0.244141, -0.915528, -0.122070
2079407, 0.210693, 0.827026, -0.539063, 0.244141, -1.342773, -0.549316
2079427, 0.202026, 0.825195, -0.541992, 0.366211, -0.061035, 0.183106
2079507, 0.223633, 0.828003, -0.535156, 0.122070, -0.671387, 1.220703
2079527, 0.218994, 0.830688, -0.528931, 0.854492, 0.427246, 0.854492
2079547, 0.280396, 0.828857, -0.518677, 2.380371, -1.831055, -0.366211
2079567, 0.330078, 0.828369, -0.531738, 4.333496, -11.657719, -7.019045
2079587, 0.207031, 0.821289, -0.566528, 2.990724, -17.272949, -10.620117
2079607, 0.113770, 0.815796, -0.581055, 1.098633, -10.620117, -6.713869
2079627, 0.105591, 0.821777, -0.561890, -1.708985, 1.342773, 3.173829
2079647, 0.195923, 0.824951, -0.542725, -1.403809, 6.286623, 6.774904
2079667, 0.271484, 0.830444, -0.532104, -0.427246, 2.441406, 4.150391
2079687, 0.231689, 0.834717, -0.526367, 0.854492, -0.122070, 0.854492
2079707, 0.211182, 0.825928, -0.538818, 1.892090, 1.220703, 0.488281
2079727, 0.205444, 0.824951, -0.544312, 2.258301, 1.831055, 0.366211
2079747, 0.191650, 0.823364, -0.548462, 2.075195, 1.953125, 1.770020
2079767, 0.229614, 0.823242, -0.546143, 1.892090, 1.220703, 2.685547
2079787, 0.291504, 0.820557, -0.549805, 1.953125, -3.845216, -0.427246
2079807, 0.287354, 0.824585, -0.547485, 1.770020, -9.033203, -6.408693
2079827, 0.199585, 0.827515, -0.540771, 2.258301, -9.704590, -10.009766
2079847, 0.189697, 0.826050, -0.534546, 3.356935, -8.056641, -8.789063
2079867, 0.219727, 0.822388, -0.551147, 4.272461, -10.498047, -8.972168
2079887, 0.207031, 0.817505, -0.572144, 3.234864, -14.404301, -10.009766
2079907, 0.167603, 0.818970, -0.579834, 1.403809, -14.831547, -9.887695
2079927, 0.108276, 0.824341, -0.563599, -0.122070, -10.559082, -6.774904
2079947, 0.090698, 0.829224, -0.540283, 0.549316, -2.441406, -1.464844
2079967, 0.096313, 0.829712, -0.540405, 2.258301, 5.676271, 3.845216
2079987, 0.123291, 0.819824, -0.568359, 2.258301, 11.901859, 8.422852
2080007, 0.168945, 0.815552, -0.576538, -0.488281, 14.831547, 11.413578
2080027, 0.209351, 0.819214, -0.562744, -1.831055, 13.793949, 11.596684
2080047, 0.253174, 0.823242, -0.544800, -1.647950, 10.498047, 9.582520
2080067, 0.256714, 0.826050, -0.530640, -0.305176, 6.469728, 6.225588
2080087, 0.255615, 0.825073, -0.534668, 1.342773, 2.929688, 3.173829
2080107, 0.227295, 0.823242, -0.544678, 2.319336, 1.037598, 1.037598
2080127, 0.211182, 0.818359, -0.557373, 2.258301, 1.159668, 1.098633
2080147, 0.233276, 0.817383, -0.561646, 1.831055, 0.427246, 0.610352
2080167, 0.230225, 0.815552, -0.565796, 0.793457, -1.770020, -0.854492
2080187, 0.208496, 0.817017, -0.562134, -0.183106, -2.685547, -0.793457
2080207, 0.246216, 0.822021, -0.546021, -0.122070, -4.333496, -1.708985
2080227, 0.254517, 0.824829, -0.536743, 1.037598, -7.568361, -4.638672
2080247, 0.234619, 0.822144, -0.544678, 2.258301, -10.437012, -7.019045
2080267, 0.203369, 0.820190, -0.557373, 2.502441, -11.474613, -7.873537
2080287, 0.176025, 0.818970, -0.561035, 2.197266, -10.070801, -6.896975
2080307, 0.162842, 0.819458, -0.563110, 1.892090, -7.629396, -5.187988
2080327, 0.153931, 0.819702, -0.558472, 1.770020, -4.211426, -2.807618
2080347, 0.164795, 0.821411, -0.560791, 1.770020, -1.342773, -0.793457
2080367, 0.179932, 0.818970, -0.563110, 1.708985, 0.488281, 0.305176
2080387, 0.200073, 0.817505, -0.569580, 0.854492, -0.122070, -0.183106
2080407, 0.213989, 0.816772, -0.569580, 0.122070, -1.953125, -2.075195
2080427, 0.200317, 0.819580, -0.565063, -0.305176, -3.051759, -2.929688
2080447, 0.178467, 0.819824, -0.563965, -0.671387, -2.807618, -2.929688
2080467, 0.157593, 0.821045, -0.562256, -0.854492, -0.671387, -1.525879
2080487, 0.147339, 0.822632, -0.556030, -0.610352, 1.892090, 1.159668
2080507, 0.161499, 0.821045, -0.560303, -0.488281, 4.394531, 3.662110
2080527, 0.206299, 0.819092, -0.564087, -0.610352, 4.760742, 4.211426
2080547, 0.232910, 0.817505, -0.569824, -1.342773, 2.197266, 1.831055
2080567, 0.208862, 0.820313, -0.566895, -2.258301, -0.366211, 0.183106
2080587, 0.179321, 0.822876, -0.548828, -2.380371, -0.061035, 0.732422
2080607, 0.199951, 0.825195, -0.542236, -1.342773, 0.793457, 1.220703
2080627, 0.221313, 0.826904, -0.541382, -0.427246, 0.122070, -0.183106
2080647, 0.213257, 0.827515, -0.541260, 0.915528, -1.220703, -1.892090
2080667, 0.205078, 0.826172, -0.550171, 1.708985, -2.014160, -2.624512
2080687, 0.216675, 0.821899, -0.561279, 1.708985, -2.624512, -4.028320
2080707, 0.204712, 0.817993, -0.561401, 1.220703, -3.845216, -5.126953
2080727, 0.200073, 0.827148, -0.558472, 1.037598, -6.164553, -5.676271
2080747, 0.158203, 0.818481, -0.570190, 0.610352, -5.981447, -5.065918
2080767, 0.151245, 0.816650, -0.566650, -1.403809, -0.305176, -1.037598
2080787, 0.146362, 0.825684, -0.555542, -1.647950, 2.746582, 1.098633
2080807, 0.172852, 0.825684, -0.557129, -1.403809, 4.455566, 2.685547
2080827, 0.162354, 0.823853, -0.546875, -1.464844, 6.286623, 4.272461
2080847, 0.223999, 0.825562, -0.550537, -0.915528, 5.004883, 3.845216
2080887, 0.185669, 0.824707, -0.552979, 0.000000, 1.770020, 0.732422
2080907, 0.236816, 0.837158, -0.532959, -0.915528, 1.708985, 3.051759
2080927, 0.257324, 0.820313, -0.557129, 1.892090, -2.868653, -5.493164
2080947, 0.190308, 0.825684, -0.557739, 1.098633, -6.713869, -6.225588
2080967, 0.149902, 0.820313, -0.559448, -0.549316, -3.295899, -2.441406
2080987, 0.226318, 0.828247, -0.547729, -0.183106, -3.417970, -2.685547
2081007, 0.250244, 0.827515, -0.547119, 0.244141, -7.873537, -6.774904
2081027, 0.233643, 0.828979, -0.548828, 1.037598, -12.695316, -10.803223
2081047, 0.174927, 0.825439, -0.558594, 1.159668, -15.625004, -12.390141
2081067, 0.105957, 0.823486, -0.563354, 0.671387, -12.512211, -10.070801
2081087, 0.091431, 0.833008, -0.560181, 0.183106, -5.981447, -5.310059
2081107, 0.107544, 0.825439, -0.557861, 0.183106, 0.488281, -1.586915
2081127, 0.133667, 0.830200, -0.554199, 0.122070, 2.868653, 0.976563
2081147, 0.138550, 0.826172, -0.556763, 0.183106, 4.943848, 4.821777
2081167, 0.192261, 0.826050, -0.562012, 0.061035, 4.638672, 4.577637
2081187, 0.187744, 0.827759, -0.558838, -0.244141, 3.295899, 2.746582
2081207, 0.183960, 0.828735, -0.558105, -0.427246, 1.770020, 2.258301
2081227, 0.175903, 0.829956, -0.559692, -0.549316, 0.732422, 1.586915
2081247, 0.167114, 0.824951, -0.552368, -0.671387, 1.525879, 1.770020
2081267, 0.184448, 0.829834, -0.549927, -0.366211, 1.525879, 1.770020
2081287, 0.185913, 0.828003, -0.554199, -0.183106, 0.732422, 0.854492
2081307, 0.179077, 0.828003, -0.553589, -0.183106, 0.366211, 0.549316
2081327, 0.174072, 0.828735, -0.551514, -0.122070, -0.305176, 0.610352
2081347, 0.186279, 0.829712, -0.550171, 0.305176, -0.488281, 0.305176
2081367, 0.174072, 0.828125, -0.555542, 0.427246, -0.549316, -0.183106
2081387, 0.163696, 0.826538, -0.559082, 0.122070, 0.122070, 0.610352
2081407, 0.179565, 0.824341, -0.555786, -0.244141, 0.366211, 0.915528
2081427, 0.188599, 0.835205, -0.549438, -0.061035, 0.366211, 0.366211
2081447, 0.181030, 0.826538, -0.550171, 0.488281, 0.427246, -0.244141
2081467, 0.202393, 0.829468, -0.541260, 0.976563, -1.159668, -0.915528
2081487, 0.186523, 0.829346, -0.549683, 1.708985, -2.929688, -2.502441
2081507, 0.144531, 0.825928, -0.563110, 1.525879, -1.342773, -1.281738
2081527, 0.153564, 0.826416, -0.560425, 0.366211, 1.342773, 1.586915
2081547, 0.169678, 0.828125, -0.550781, 0.366211, 3.051759, 2.624512
2081567, 0.190063, 0.828247, -0.549561, 0.732422, 2.990724, 2.258301
2081587, 0.191284, 0.829102, -0.551392, 1.098633, 1.953125, 1.464844
2081607, 0.174683, 0.825195, -0.558716, 0.976563, 1.831055, 1.281738
2081627, 0.162964, 0.826172, -0.558716, 0.549316, 2.990724, 2.441406
2081647, 0.175293, 0.825684, -0.555054, 0.244141, 4.699707, 3.601075
2081667, 0.209839, 0.826782, -0.549805, 0.488281, 3.540040, 3.112794
2081687, 0.211060, 0.827271, -0.549927, 0.732422, 1.403809, 1.281738
2081707, 0.196167, 0.826172, -0.552979, 0.915528, 0.000000, 0.549316
2081727, 0.196899, 0.825684, -0.557129, 0.610352, -1.464844, -0.305176
2081747, 0.188354, 0.824585, -0.557861, 0.366211, -1.281738, -0.427246
2081767, 0.192383, 0.826294, -0.555420, 0.000000, -1.586915, -0.427246
2081787, 0.185425, 0.827637, -0.548340, 0.427246, -1.831055, -0.549316
2081807, 0.194702, 0.821777, -0.558350, 0.122070, -1.220703, -0.610352
2081827, 0.197632, 0.827637, -0.551025, 0.305176, -2.502441, -1.525879
2081847, 0.178345, 0.826294, -0.552002, 0.610352, -2.258301, -1.525879
2081867, 0.180664, 0.825073, -0.553101, 0.549316, -1.647950, -0.976563
2081887, 0.176392, 0.824707, -0.558228, 0.488281, -1.342773, -0.610352
2081907, 0.169678, 0.824341, -0.559937, -0.061035, 0.610352, 0.976563
2081927, 0.191162, 0.825684, -0.553345, -0.244141, 1.403809, 1.220703
2081947, 0.204102, 0.825928, -0.549683, 0.000000, 0.183106, 0.366211
2081967, 0.201172, 0.826538, -0.549316, 0.366211, -1.464844, -0.793457
2081987, 0.190552, 0.825439, -0.557373, 0.366211, -2.624512, -1.281738
2082007, 0.169556, 0.825317, -0.555054, 0.122070, -1.953125, -0.854492
2082027, 0.175537, 0.825073, -0.553589, -0.061035, -0.610352, 0.122070
2082047, 0.186523, 0.827271, -0.551270, 0.061035, -0.244141, 0.122070
2082067, 0.191895, 0.824341, -0.554077, 0.244141, -0.549316, -0.061035
2082087, 0.196167, 0.830933, -0.554443, 0.122070, -1.770020, -0.732422
2082107, 0.164795, 0.820679, -0.557861, 0.122070, -0.610352, -0.183106
2082127, 0.186279, 0.826538, -0.551147, -0.061035, -0.061035, 0.610352
2082147, 0.206299, 0.828491, -0.549072, 0.305176, -1.281738, -0.244141
2082167, 0.201538, 0.826050, -0.556641, 0.305176, -3.051759, -1.708985
2082187, 0.180054, 0.824829, -0.554077, 0.305176, -3.479005, -2.014160
2082207, 0.164551, 0.826538, -0.555420, 0.061035, -2.441406, -1.342773
2082227, 0.170776, 0.828003, -0.551270, 0.122070, -0.976563, -0.183106
2082247, 0.188477, 0.827881, -0.553223, 0.305176, -0.793457, -0.305176
2082267, 0.175659, 0.825806, -0.554565, 0.427246, -1.037598, -0.366211
2082287, 0.178345, 0.826172, -0.557373, 0.061035, -0.610352, 0.305176
2082327, 0.186157, 0.828491, -0.551147, -0.244141, 0.854492, 1.220703
2082347, 0.200562, 0.828979, -0.547729, 0.183106, -0.183106, 0.305176
2082367, 0.197388, 0.828003, -0.550049, 0.549316, -1.586915, -0.854492
2082387, 0.180786, 0.826660, -0.556519, 0.671387, -2.136230, -1.220703
2082407, 0.167603, 0.825684, -0.558350, 0.244141, -1.708985, -0.549316
2082427, 0.173828, 0.825073, -0.557129, -0.305176, -0.244141, 0.305176
2082447, 0.185791, 0.827759, -0.550781, 0.000000, -0.244141, 0.122070
2082467, 0.184082, 0.829468, -0.549683, 0.427246, -0.366211, -0.122070
2082487, 0.174927, 0.826660, -0.552979, 0.366211, -0.610352, 0.122070
2082507, 0.185669, 0.826782, -0.553711, 0.244141, -0.244141, 0.244141
2082527, 0.187378, 0.827637, -0.552856, 0.366211, -0.976563, -0.061035
2082547, 0.180298, 0.828247, -0.553589, 0.305176, -1.220703, -0.183106
2082567, 0.170166, 0.824585, -0.557251, 0.122070, -0.366211, 0.244141
2082587, 0.172852, 0.826782, -0.551514, -0.061035, 0.793457, 0.915528
2082607, 0.186035, 0.829346, -0.550171, 0.305176, 1.037598, 1.098633
2082627, 0.191162, 0.826416, -0.551636, 0.366211, 0.671387, 0.610352
2082647, 0.191895, 0.828491, -0.550293, 0.549316, -0.366211, 0.244141
2082667, 0.183960, 0.831055, -0.554321, 0.488281, -0.854492, 0.000000
2082687, 0.175049, 0.822998, -0.554932, 0.488281, -0.122070, 0.122070
2082707, 0.185547, 0.826172, -0.549927, 0.183106, 0.488281, 0.549316
2082727, 0.195190, 0.828735, -0.553101, 0.488281, -0.305176, 0.122070
2082747, 0.184570, 0.826782, -0.554932, 0.549316, -0.488281, -0.183106
2082767, 0.186768, 0.824341, -0.551880, 0.488281, -0.732422, -0.061035
2082787, 0.189819, 0.825562, -0.551758, 0.549316, -1.037598, -0.305176
2082807, 0.193604, 0.826172, -0.554932, 0.427246, -1.708985, -0.732422
2082847, 0.173218, 0.825684, -0.556641, 0.488281, -1.953125, -1.281738
2082867, 0.176514, 0.827026, -0.555298, 0.122070, -0.976563, -0.183106
2082887, 0.172363, 0.827026, -0.555298, 0.183106, -0.244141, 0.366211
2082907, 0.178345, 0.828613, -0.553589, 0.061035, 0.671387, 0.854492
2082927, 0.186157, 0.825439, -0.552002, 0.244141, 0.366211, 0.976563
2082967, 0.190430, 0.825317, -0.550537, 0.488281, -0.732422, -0.183106
2082987, 0.178833, 0.827759, -0.551514, 0.549316, -0.305176, -0.061035
2083007, 0.179565, 0.825928, -0.556641, 0.549316, 0.000000, 0.305176
2083027, 0.182617, 0.823975, -0.556885, 0.183106, 0.366211, 0.610352
2083047, 0.183838, 0.824585, -0.553711, 0.000000, 0.000000, 0.427246
2083067, 0.188354, 0.828125, -0.551025, 0.183106, -0.305176, 0.427246
2083087, 0.185059, 0.825928, -0.552734, 0.244141, -0.244141, 0.183106
2083107, 0.182739, 0.825562, -0.552612, 0.244141, 0.305176, 0.427246
2083127, 0.190918, 0.824585, -0.553711, 0.183106, -0.122070, 0.305176
2083147, 0.176880, 0.829834, -0.551514, 0.183106, 0.000000, 0.549316
2083167, 0.181519, 0.827515, -0.552856, 0.366211, 0.854492, 1.220703
2083187, 0.198853, 0.821533, -0.552734, 0.244141, 0.427246, 0.854492
2083207, 0.201294, 0.830078, -0.551025, 0.305176, -0.671387, -0.061035
2083227, 0.181030, 0.823608, -0.558350, 0.183106, -0.610352, 0.000000
2083247, 0.194458, 0.827271, -0.553589, 0.244141, -0.610352, 0.061035
2083267, 0.193237, 0.824951, -0.553345, 0.122070, -0.732422, -0.427246
2083287, 0.198364, 0.827026, -0.545898, 0.366211, -1.953125, -0.915528
2083307, 0.194580, 0.827759, -0.552002, 0.610352, -2.685547, -1.281738
2083327, 0.187134, 0.826416, -0.557983, 0.549316, -3.112794, -1.770020
2083347, 0.170288, 0.824951, -0.557129, 0.122070, -2.197266, -1.098633
2083367, 0.176758, 0.825195, -0.552979, -0.183106, -0.976563, -0.244141
2083387, 0.184448, 0.828857, -0.550049, 0.061035, -0.427246, -0.061035
2083407, 0.186523, 0.828735, -0.552124, 0.305176, -0.488281, -0.122070
2083427, 0.183838, 0.821533, -0.554565, 0.183106, -0.854492, -0.244141
2083447, 0.180786, 0.835205, -0.549683, 0.244141, -0.610352, 0.183106
2083467, 0.172119, 0.821777, -0.556519, 0.305176, 0.732422, 0.793457
2083487, 0.199463, 0.829834, -0.544434, 0.427246, 0.427246, 0.793457
2083507, 0.200928, 0.829346, -0.550537, 1.037598, -0.915528, -0.427246
2083527, 0.188477, 0.823853, -0.559448, 0.549316, -1.403809, -0.793457
2083567, 0.184204, 0.828125, -0.552612, 0.061035, -1.342773, -1.098633
2083587, 0.183472, 0.827026, -0.549683, 0.244141, -1.220703, -0.976563
2083607, 0.180054, 0.828613, -0.551147, 0.305176, -1.342773, -0.732422
2083627, 0.187988, 0.827759, -0.555420, 0.488281, -1.220703, -0.488281
2083647, 0.178711, 0.826294, -0.552856, 0.305176, -0.976563, -0.488281
2083667, 0.175049, 0.828491, -0.551147, 0.366211, -0.610352, -0.061035
2083687, 0.168335, 0.828247, -0.552246, 0.488281, 0.610352, 0.732422
2083707, 0.183594, 0.825562, -0.552612, 0.549316, 1.403809, 1.464844
2083727, 0.197266, 0.827637, -0.552490, 0.549316, 0.793457, 0.915528
2083747, 0.187012, 0.826904, -0.551636, 0.671387, 0.305176, 0.244141
2083767, 0.183716, 0.829712, -0.554688, 0.793457, 0.427246, 0.488281
2083787, 0.175781, 0.820557, -0.559326, 0.366211, 1.403809, 0.976563
2083807, 0.205933, 0.826782, -0.554810, 0.366211, -0.305176, 0.305176
2083827, 0.195313, 0.824463, -0.554932, 0.122070, -1.342773, -0.549316
2083847, 0.197998, 0.826538, -0.548462, 0.183106, -2.319336, -1.037598
2083867, 0.192993, 0.826782, -0.552490, 0.427246, -2.807618, -1.770020
2083887, 0.179932, 0.828979, -0.554321, 0.610352, -2.441406, -1.831055
2083907, 0.171143, 0.823975, -0.558228, 0.183106, -1.586915, -1.037598
2083927, 0.186035, 0.824585, -0.555176, -0.183106, -1.525879, -0.488281
2083947, 0.186157, 0.826904, -0.551025, -0.122070, -1.770020, -0.793457
2083967, 0.189331, 0.827637, -0.551392, 0.061035, -1.892090, -0.976563
2083987, 0.177856, 0.829224, -0.550659, 0.366211, -2.136230, -1.159668
2084007, 0.174683, 0.830933, -0.557861, 0.122070, -0.549316, 0.000000
2084027, 0.171509, 0.820679, -0.559570, -0.183106, 0.488281, 0.610352
2084047, 0.202393, 0.828369, -0.546875, -0.305176, -0.549316, 0.244141
2084067, 0.193970, 0.829712, -0.548828, 0.183106, -2.014160, -0.915528
2084087, 0.188110, 0.828491, -0.551147, 0.427246, -2.502441, -1.220703
2084107, 0.176514, 0.825684, -0.552979, 0.610352, -2.807618, -1.525879
2084127, 0.161743, 0.827148, -0.557251, 0.183106, -1.281738, -0.671387
2084147, 0.167603, 0.826782, -0.557373, -0.061035, 0.244141, 0.549316
2084167, 0.182251, 0.827393, -0.551025, -0.244141, 0.854492, 0.793457
2084187, 0.185547, 0.830322, -0.546509, 0.366211, 0.366211, 0.610352
2084207, 0.191772, 0.829590, -0.549683, 0.793457, -0.183106, 0.183106
2084227, 0.180908, 0.822876, -0.555786, 0.610352, -0.183106, -0.366211
2084247, 0.172852, 0.833740, -0.550903, 0.671387, -0.183106, 0.183106
2084267, 0.165894, 0.820801, -0.559692, 0.366211, 1.464844, 1.342773
2084287, 0.199341, 0.829590, -0.547485, 0.427246, 0.793457, 1.159668
2084307, 0.193115, 0.828125, -0.548706, 0.915528, -0.305176, 0.183106
2084327, 0.195068, 0.828491, -0.555054, 0.915528, -0.793457, -0.305176
2084347, 0.179565, 0.824585, -0.558716, 0.610352, -1.342773, -0.610352
2084367, 0.177368, 0.826172, -0.557129, 0.122070, -0.793457, 0.061035
2084387, 0.192627, 0.826294, -0.551636, 0.061035, -1.159668, -0.061035
2084407, 0.194336, 0.827393, -0.554199, 0.061035, -1.953125, -0.732422
2084427, 0.184448, 0.826904, -0.548950, 0.305176, -2.380371, -1.098633
2084447, 0.191772, 0.827637, -0.551636, 0.427246, -2.807618, -1.403809
2084467, 0.180298, 0.829956, -0.554443, 0.549316, -3.112794, -1.953125
2084487, 0.161011, 0.825439, -0.557617, 0.366211, -1.892090, -1.098633
2084507, 0.165894, 0.826172, -0.555298, 0.183106, -0.366211, 0.183106
2084527, 0.183594, 0.827637, -0.552002, 0.244141, 0.061035, 0.427246
2084547, 0.187378, 0.828003, -0.552734, 0.305176, -0.305176, -0.061035
2084567, 0.183960, 0.828003, -0.552856, 0.671387, -1.708985, -0.915528
2084587, 0.164185, 0.824585, -0.557861, 0.610352, -0.915528, -0.122070
2084607, 0.165039, 0.829834, -0.554810, 0.549316, 0.000000, 0.854492
2084627, 0.173584, 0.822144, -0.556641, 0.061035, 2.014160, 1.892090
2084647, 0.208618, 0.828735, -0.548096, 0.244141, 0.549316, 0.976563
2084667, 0.193604, 0.828613, -0.550781, 0.793457, -1.281738, -0.549316
2084687, 0.175781, 0.826538, -0.555786, 0.549316, -1.159668, -0.488281
2084707, 0.167969, 0.825684, -0.557251, 0.366211, -0.244141, 0.122070
2084727, 0.168579, 0.827393, -0.552002, 0.183106, 0.793457, 1.159668
2084747, 0.187500, 0.828125, -0.550293, 0.488281, 1.159668, 1.586915
2084767, 0.197510, 0.827393, -0.549927, 0.915528, -0.549316, -0.061035
2084787, 0.184814, 0.826294, -0.556763, 0.976563, -1.342773, -0.488281
2084827, 0.181274, 0.823853, -0.556274, 0.183106, 0.000000, 0.671387
2084847, 0.194946, 0.827148, -0.554688, 0.061035, -0.549316, 0.122070
2084867, 0.186401, 0.826782, -0.553223, 0.183106, -0.854492, -0.366211
2084887, 0.186890, 0.825684, -0.554810, 0.183106, -1.098633, -0.610352
2084907, 0.191040, 0.826050, -0.552368, 0.244141, -1.708985, -0.610352
2084927, 0.193237, 0.831177, -0.551514, 0.610352, -2.929688, -1.403809
2084947, 0.178589, 0.823242, -0.555664, -0.122070, -2.014160, -0.915528
2084967, 0.178589, 0.827759, -0.552124, 0.000000, -1.831055, -0.854492
2084987, 0.181396, 0.828125, -0.555054, 0.183106, -1.281738, -0.732422
2085007, 0.179565, 0.828247, -0.552368, 0.305176, -1.708985, -0.915528
2085027, 0.170410, 0.826050, -0.553467, 0.305176, -1.098633, -0.366211
2085047, 0.180542, 0.827637, -0.553467, 0.488281, -0.915528, 0.000000
2085067, 0.188354, 0.826782, -0.556274, 0.427246, -1.159668, -0.610352
2085087, 0.173950, 0.827148, -0.550049, 0.427246, -1.220703, -0.610352
2085107, 0.173096, 0.828247, -0.553711, 0.732422, -0.732422, -0.305176
2085127, 0.174438, 0.825195, -0.555908, 0.671387, -0.366211, 0.305176
2085147, 0.178101, 0.827759, -0.552612, 0.427246, -0.305176, 0.183106
2085167, 0.176758, 0.824341, -0.553101, 0.549316, 0.061035, 0.427246
2085187, 0.177368, 0.833618, -0.555420, 0.610352, 0.122070, 0.671387
2085207, 0.166016, 0.821411, -0.561157, 0.549316, 1.159668, 1.342773
2085227, 0.193237, 0.824707, -0.552002, 0.061035, 1.220703, 1.403809
2085247, 0.201660, 0.828979, -0.549683, 0.549316, -0.366211, 0.122070
2085267, 0.192627, 0.827026, -0.554443, 0.793457, -1.281738, -0.793457
2085287, 0.178833, 0.825562, -0.558105, 0.732422, -1.953125, -1.037598
2085307, 0.170410, 0.824707, -0.560913, 0.183106, -0.976563, -0.305176
2085327, 0.187256, 0.826538, -0.553223, 0.122070, -0.366211, 0.061035
2085347, 0.188599, 0.828125, -0.551880, 0.366211, -1.159668, -0.549316
2085367, 0.180542, 0.827515, -0.557007, 0.488281, -1.647950, -0.671387
2085387, 0.174438, 0.825439, -0.558228, 0.366211, -1.342773, -0.305176
2085407, 0.174927, 0.824219, -0.555176, 0.000000, -0.732422, 0.000000
2085427, 0.177734, 0.828735, -0.551514, 0.244141, -0.366211, 0.427246
2085447, 0.174316, 0.827759, -0.553589, 0.427246, 0.244141, 0.610352
2085467, 0.179443, 0.826782, -0.555542, 0.305176, 0.854492, 0.915528
2085507, 0.167114, 0.818970, -0.561401, -0.122070, 2.441406, 2.014160
2085527, 0.190308, 0.827759, -0.552002, 0.183106, 1.831055, 2.319336
2085547, 0.188110, 0.827148, -0.554077, 0.122070, 1.953125, 2.197266
2085567, 0.204712, 0.825317, -0.554565, 0.305176, 0.915528, 1.586915
2129930, 0.177124, 0.839966, -0.526611, 1.281738, -2.746582, -1.403809
2129950, 0.174438, 0.848267, -0.523560, 1.159668, -0.915528, -0.122070
2129970, 0.187256, 0.835083, -0.534424, 1.586915, -0.732422, 0.366211
2129990, 0.189331, 0.832764, -0.538208, 0.854492, 0.183106, 0.671387
2130010, 0.193115, 0.847046, -0.535278, 0.183106, 1.220703, 0.671387
2130030, 0.205322, 0.833618, -0.542847, -0.610352, 1.037598, 0.000000
2130050, 0.195557, 0.835449, -0.541504, -1.831055, 0.366211, -0.183106
2130070, 0.195923, 0.835815, -0.536865, -3.784181, -0.305176, -0.610352
2130090, 0.193726, 0.838623, -0.529175, -4.333496, 0.488281, -0.854492
2130110, 0.197876, 0.843506, -0.525146, -4.699707, 0.732422, -0.793457
2130130, 0.223877, 0.846191, -0.523804, -4.638672, -0.305176, -2.197266
2130150, 0.209961, 0.844604, -0.519775, -4.577637, -2.380371, -3.906251
2130170, 0.183350, 0.846069, -0.523438, -4.760742, -3.601075, -3.967286
2130190, 0.156738, 0.843262, -0.541260, -5.737307, -2.441406, -1.892090
2130210, 0.173706, 0.845337, -0.516968, -7.385256, -0.610352, -0.061035
2130230, 0.206055, 0.854736, -0.495850, -6.225588, -1.953125, 0.061035
2130250, 0.195068, 0.850952, -0.496338, -4.333496, -7.202150, -0.488281
2130270, 0.190552, 0.855347, -0.511353, -3.967286, -8.422852, -0.854492
2130290, 0.178345, 0.854980, -0.512207, -4.150391, -5.737307, -0.854492
2130310, 0.208374, 0.851074, -0.529053, -5.187988, -5.126953, -1.831055
2130330, 0.210449, 0.849976, -0.529907, -7.019045, -9.399414, -3.601075
2130350, 0.132935, 0.849609, -0.519897, -8.911133, -9.338379, -2.502441
2130370, 0.155762, 0.851807, -0.520874, -10.498047, -6.225588, 0.366211
2130390, 0.194336, 0.865601, -0.502563, -11.535648, -5.493164, -0.061035
2130410, 0.188721, 0.854980, -0.487061, -11.657719, -4.272461, -1.953125
2130430, 0.048462, 0.868286, -0.410400, 1.098633, 1.037598, 5.981447
2130450, 0.152344, 0.868408, -0.507935, 1.647950, 11.474613, 11.657719
2130470, 0.126831, 0.870605, -0.476807, 5.004883, 13.000492, 12.573246
2130490, 0.141357, 0.862427, -0.493530, 2.868653, 17.944336, 15.441898
2130510, 0.176514, 0.880615, -0.473267, 1.464844, 21.240234, 15.441898
2130530, 0.216675, 0.875366, -0.450073, 7.141115, 24.353035, 12.390141
2130550, 0.287964, 0.866455, -0.482056, 7.141115, 21.545410, 5.493164
2130570, 0.252441, 0.862061, -0.491821, 7.202150, 15.869144, -1.770020
2130590, 0.246216, 0.866699, -0.494385, 7.202150, 13.854984, -5.554201
2130610, 0.239014, 0.850830, -0.509888, 7.751467, 12.878422, -11.779789
2130630, 0.163940, 0.853760, -0.492676, 4.455566, 11.657719, -7.934572
2130650, 0.211304, 0.856812, -0.504395, 2.807618, 13.549809, -5.187988
2130670, 0.247437, 0.864502, -0.494141, 0.427246, 12.634281, -8.117676
2130690, 0.304932, 0.873291, -0.483032, -0.671387, 10.803223, -15.441898
2130710, 0.252319, 0.856323, -0.465698, -0.549316, 5.310059, -17.272949
2130730, 0.204346, 0.854248, -0.470459, -2.441406, 2.990724, -13.366703
2130750, 0.174805, 0.862915, -0.451538, -2.502441, 7.019045, -6.774904
2130770, 0.229248, 0.867188, -0.502075, -7.812502, 7.080080, -10.742188
2130790, 0.228027, 0.889648, -0.450806, -4.211426, 4.821777, -8.544922
2130810, 0.220581, 0.882935, -0.454102, -5.371094, 2.197266, -8.544922
2130830, 0.244873, 0.883057, -0.463745, -6.042482, -2.136230, -11.047363
2130850, 0.248535, 0.880981, -0.434692, -6.958010, -8.605957, -12.878422
2130870, 0.217407, 0.876709, -0.439453, -6.042482, -10.986328, -13.000492
2130890, 0.204224, 0.874390, -0.453003, -3.784181, -9.765625, -12.146000
2130910, 0.218384, 0.882324, -0.445801, -5.004883, -11.413578, -13.793949
2130930, 0.187256, 0.880371, -0.458252, -4.577637, -11.474613, -13.244633
2130950, 0.174927, 0.873413, -0.456909, -4.943848, -9.765625, -11.535648
2130970, 0.196533, 0.870605, -0.484497, -7.019045, -8.422852, -9.399414
2130990, 0.179321, 0.881714, -0.464722, -11.291508, -10.803223, -7.934572
2131010, 0.197388, 0.876953, -0.482544, -17.456055, -12.207035, -2.380371
2131030, 0.177612, 0.871582, -0.451050, -23.437508, -7.263186, 2.319336
2131050, 0.170532, 0.879028, -0.411377, -13.916019, -11.230473, 6.835939
2131070, 0.233398, 0.873047, -0.440430, -12.207035, -11.535648, 7.568361
2131090, 0.203613, 0.878540, -0.456665, -7.446291, -13.977055, 5.859377
2131110, 0.175903, 0.859985, -0.484863, -8.300781, -15.686039, 9.704590
2131130, 0.171509, 0.863770, -0.497437, -7.385256, -15.197758, 12.756351
2131150, 0.183105, 0.865479, -0.508301, -7.934572, -13.732914, 9.582520
2131170, 0.154053, 0.861572, -0.496582, -7.385256, -12.023930, 9.948730
2131190, 0.119995, 0.869263, -0.493652, -8.361816, -9.460449, 13.854984
2131210, 0.081665, 0.872559, -0.473999, -7.873537, 2.990724, 22.888191
2131230, 0.175415, 0.874146, -0.484375, -9.155273, 6.469728, 22.216805
2131250, 0.185913, 0.892578, -0.451538, -7.873537, 5.859377, 19.592285
2131270, 0.216553, 0.890991, -0.446411, -5.126953, 1.647950, 14.831547
2131290, 0.219360, 0.903564, -0.434082, -3.173829, -1.220703, 7.507326
2131310, 0.171631, 0.894043, -0.404663, 1.098633, -1.892090, 4.821777
2131330, 0.242188, 0.892578, -0.445923, 2.136230, -1.831055, 2.014160
2131350, 0.174316, 0.907227, -0.384766, 5.065918, -6.469728, -1.586915
2131370, 0.157959, 0.897095, -0.431152, 5.798342, -2.380371, 1.647950
2131390, 0.133789, 0.894409, -0.423218, 7.019045, 1.220703, 4.394531
2131410, 0.161011, 0.900146, -0.434692, 9.582520, 2.197266, 4.638672
2131430, 0.133545, 0.906006, -0.418457, 7.629396, 2.014160, 2.929688
2131450, 0.063110, 0.907349, -0.440308, 8.483887, 10.986328, 6.225588
2131470, 0.089355, 0.905396, -0.412720, 11.657719, 16.906738, 6.774904
2131490, 0.110352, 0.902222, -0.457397, 12.878422, 23.559578, 6.347658
2131510, 0.165405, 0.912476, -0.435547, 12.634281, 22.766121, 2.868653
2131530, 0.154175, 0.909302, -0.430542, 14.526371, 21.850586, -1.586915
2131550, 0.148682, 0.901001, -0.442139, 14.282230, 23.254402, -2.990724
2131570, 0.253906, 0.916382, -0.427856, 14.526371, 20.568848, -7.690432
2131590, 0.224365, 0.885620, -0.376099, 14.770512, 17.944336, -8.544922
2131610, 0.337524, 0.885254, -0.378784, 15.136723, 13.977055, -5.859377
2131630, 0.346924, 0.877686, -0.384644, 16.723633, 6.530764, -7.324221
2131650, 0.332886, 0.857056, -0.405884, 14.343266, 1.037598, -1.953125
2131670, 0.360474, 0.862671, -0.408813, 8.850098, -1.831055, 7.141115
2131690, 0.398804, 0.872803, -0.433838, 9.826660, -8.178711, 1.037598
2131710, 0.290527, 0.853271, -0.494751, 9.765625, -12.512211, -7.080080
2131730, 0.225830, 0.850220, -0.514038, 7.019045, -13.488773, -8.239746
2131750, 0.201294, 0.852783, -0.518066, 3.845216, -12.329105, -7.751467
2131770, 0.185303, 0.857422, -0.497803, 0.610352, -6.958010, -4.699707
2131790, 0.192261, 0.864746, -0.481323, 0.244141, -3.662110, -3.417970
2131810, 0.169067, 0.857300, -0.480835, 0.427246, -0.427246, -1.586915
