timestamp,ax,ay,az,gx,gy,gz
751581, 0.594360, 0.446045, -0.693237, 0.366211, 0.732422, 0.671387
751601, 0.583008, 0.430420, -0.683472, -0.183106, 0.854492, 0.122070
751621, 0.584229, 0.438354, -0.685181, -0.854492, 2.685547, 0.000000
751641, 0.604614, 0.442383, -0.689941, 0.000000, -0.122070, -1.098633
751661, 0.590210, 0.429321, -0.688965, -0.366211, -2.197266, -1.831055
751681, 0.583008, 0.439453, -0.690430, -0.915528, -0.976563, -1.098633
751701, 0.587280, 0.446167, -0.691162, -1.220703, 0.732422, -0.793457
751721, 0.588623, 0.449585, -0.688110, -0.793457, 0.305176, -0.671387
751741, 0.588135, 0.451416, -0.690552, -1.159668, -0.793457, -0.488281
751761, 0.586792, 0.455322, -0.689087, -0.366211, -0.549316, 0.915528
751781, 0.585938, 0.445801, -0.686035, -0.488281, -0.244141, 0.122070
751801, 0.588013, 0.445435, -0.686646, -0.183106, -0.061035, -0.427246
751821, 0.590576, 0.445190, -0.686523, -0.183106, -0.793457, -1.098633
751841, 0.586670, 0.446899, -0.690796, 0.061035, 0.305176, 0.488281
751861, 0.589233, 0.450928, -0.684448, 0.122070, 0.671387, 0.427246
751881, 0.588745, 0.446655, -0.687378, 0.488281, 0.183106, 0.610352
751901, 0.587036, 0.449585, -0.686035, 0.122070, 0.427246, 0.610352
751921, 0.593018, 0.444580, -0.687378, 0.488281, 0.549316, 0.549316
751941, 0.593262, 0.435181, -0.682861, 0.061035, -0.671387, -1.037598
751961, 0.591431, 0.434326, -0.683960, 0.000000, -2.014160, -2.380371
751981, 0.585449, 0.440674, -0.688843, -0.793457, -1.525879, -2.929688
752001, 0.590210, 0.460449, -0.688721, -0.793457, -0.915528, -1.708985
752021, 0.589600, 0.455933, -0.683105, 0.244141, -1.708985, -1.098633
752041, 0.583862, 0.446899, -0.686157, 0.061035, -1.831055, -0.549316
752061, 0.586792, 0.450317, -0.686646, -0.488281, -0.793457, -0.305176
752081, 0.582031, 0.447754, -0.683838, -0.122070, -0.671387, -0.732422
752101, 0.578613, 0.448853, -0.687744, -0.549316, 0.488281, -0.671387
752121, 0.585815, 0.459595, -0.690063, -0.427246, 1.586915, 0.488281
752141, 0.590576, 0.453247, -0.687378, 0.061035, 1.525879, 0.793457
752161, 0.592163, 0.444336, -0.680908, 0.427246, -0.305176, -0.915528
752181, 0.592285, 0.443604, -0.684937, 0.183106, -1.586915, -2.075195
752201, 0.589111, 0.452148, -0.684814, 0.000000, -1.342773, -1.037598
752221, 0.586060, 0.449341, -0.684692, -0.061035, -0.610352, -0.793457
752241, 0.587280, 0.444458, -0.680176, -0.427246, -0.488281, -1.342773
752261, 0.592896, 0.452271, -0.683472, -1.159668, -1.037598, -1.647950
752281, 0.591064, 0.464844, -0.686157, -0.671387, -0.854492, 0.061035
752301, 0.589233, 0.458008, -0.685059, -0.122070, -0.976563, 0.854492
752321, 0.585449, 0.451172, -0.680176, -0.366211, -1.342773, 0.915528
752341, 0.586792, 0.450439, -0.685791, -0.488281, -1.098633, 0.732422
752361, 0.584717, 0.446533, -0.684204, -0.427246, -1.281738, -0.610352
752381, 0.585449, 0.437622, -0.683105, -0.915528, -1.342773, -1.892090
752401, 0.590576, 0.457275, -0.685059, -2.075195, -1.159668, -1.342773
752461, 0.566284, 0.434814, -0.686401, -3.479005, -0.549316, -1.464844
752481, 0.588135, 0.472900, -0.676025, -4.699707, 2.502441, -1.464844
752501, 0.602173, 0.479736, -0.682373, -1.403809, -1.342773, -0.915528
752521, 0.587158, 0.453003, -0.682373, -2.319336, -3.356935, -1.281738
752541, 0.584351, 0.425293, -0.671387, -5.737307, -3.784181, -1.403809
752561, 0.587402, 0.444214, -0.670532, -8.300781, -4.150391, -3.173829
752581, 0.575195, 0.452637, -0.681641, -9.155273, -4.455566, -3.234864
752601, 0.589355, 0.472168, -0.676270, -10.925293, -3.295899, -3.906251
752621, 0.583008, 0.460205, -0.673706, -11.779789, -4.577637, -7.507326
752641, 0.563721, 0.442993, -0.673340, -16.296387, -6.591799, -10.009766
752661, 0.550049, 0.451782, -0.678345, -21.118164, -5.126953, -8.666992
752681, 0.555542, 0.464600, -0.665405, -23.803719, -0.610352, -7.446291
752701, 0.582520, 0.467041, -0.649536, -23.132332, 0.122070, -12.146000
752721, 0.579834, 0.461426, -0.644653, -24.414070, -4.211426, -20.690918
752741, 0.557007, 0.521606, -0.646729, -25.024422, -5.432129, -22.216805
752761, 0.562622, 0.586426, -0.661621, -24.475105, -1.647950, -15.197758
752781, 0.578613, 0.620850, -0.637207, -19.592285, 0.549316, 3.479005
752801, 0.586914, 0.624756, -0.601685, -14.892582, -1.342773, 8.483887
752821, 0.589722, 0.580322, -0.613525, -3.845216, -9.277344, 5.187988
752841, 0.564697, 0.553101, -0.631958, -0.488281, -17.883301, -0.976563
752861, 0.527466, 0.535034, -0.654053, 2.624512, -17.639160, -2.807618
752881, 0.500610, 0.544800, -0.659302, 4.272461, -11.108402, -2.380371
752901, 0.468506, 0.537354, -0.666016, 5.981447, 3.295899, 2.441406
752921, 0.477661, 0.504272, -0.673584, 6.774904, 16.052246, 7.263186
752941, 0.483887, 0.494141, -0.658813, 7.507326, 31.188972, 14.404301
752961, 0.539551, 0.529419, -0.659424, 7.873537, 45.532242, 14.038090
752981, 0.605347, 0.557495, -0.638794, 10.864258, 41.992188, 9.460449
753001, 0.644775, 0.549316, -0.572632, 19.958496, 8.789063, 11.230473
753021, 0.639648, 0.578247, -0.715088, 10.620117, 5.310059, 0.305176
753041, 0.603882, 0.571167, -0.614990, 13.916019, -12.756351, -0.732422
753061, 0.552490, 0.538696, -0.651123, 11.169437, -1.159668, -4.699707
753081, 0.571411, 0.538574, -0.630981, 12.878422, 1.831055, -6.652834
753101, 0.566528, 0.533569, -0.663330, 11.169437, 7.324221, -8.239746
753121, 0.606934, 0.559937, -0.659180, 11.291508, 2.990724, -12.207035
753141, 0.594116, 0.561768, -0.663574, 11.840824, -6.774904, -18.310547
753161, 0.572388, 0.565796, -0.647583, 9.704590, -18.615723, -23.315437
753181, 0.572754, 0.579590, -0.629272, 5.004883, -17.089844, -23.010262
753201, 0.592773, 0.538940, -0.628174, 2.319336, -16.967773, -24.169930
753221, 0.571899, 0.512695, -0.647949, -4.516602, -22.766121, -15.258793
753241, 0.591431, 0.519531, -0.647705, -10.742188, -30.212410, -8.117676
753261, 0.610107, 0.500488, -0.653076, -14.404301, -35.705566, -4.638672
753281, 0.608643, 0.498535, -0.630127, -15.502934, -41.076660, -3.356935
753301, 0.606445, 0.524658, -0.665894, -15.930180, -48.400894, -2.319336
753321, 0.567139, 0.537598, -0.686646, -22.277840, -57.067886, -0.488281
753341, 0.527954, 0.546265, -0.647705, -25.146492, -56.518570, 4.516602
753361, 0.399780, 0.555298, -0.677124, -26.123055, -38.452148, 9.643555
753381, 0.385986, 0.574341, -0.679321, -24.841316, -14.099125, 13.488773
753401, 0.409912, 0.603027, -0.702637, -29.296883, 10.803223, 17.578125
753421, 0.478516, 0.632568, -0.646484, -32.104492, 38.635254, 13.000492
753441, 0.417480, 0.584351, -0.715576, -29.602058, 25.878914, 11.596684
753461, 0.464600, 0.609497, -0.675659, -33.874512, 27.587898, 11.596684
753481, 0.505249, 0.603394, -0.635742, -25.695808, 14.282230, 4.699707
753501, 0.516235, 0.616821, -0.691040, -24.597176, 6.958010, -1.281738
753521, 0.514160, 0.647461, -0.620728, -23.193367, -0.732422, -10.375977
753541, 0.484131, 0.622314, -0.629395, -15.930180, -8.544922, -10.986328
753561, 0.495239, 0.635254, -0.640625, -14.892582, -4.882813, -16.906738
753581, 0.453003, 0.620972, -0.627319, -11.718754, -3.845216, -17.211914
753601, 0.453369, 0.619263, -0.579468, -5.798342, 1.892090, -20.446777
753621, 0.439697, 0.619629, -0.643555, -0.671387, 5.310059, -16.906738
753641, 0.470825, 0.646973, -0.613770, 2.380371, 11.596684, -17.578125
753661, 0.494751, 0.599731, -0.603638, 8.605957, 3.479005, -19.470215
753681, 0.488525, 0.612305, -0.609619, 13.854984, -0.122070, -19.287109
753701, 0.497925, 0.606689, -0.598755, 19.104004, -2.807618, -21.545410
753721, 0.497314, 0.581299, -0.581909, 26.550301, -3.662110, -15.014652
753741, 0.501709, 0.586060, -0.586060, 29.907234, -2.380371, -8.728027
753761, 0.541016, 0.588013, -0.588623, 30.212410, -0.427246, -5.859377
753781, 0.490356, 0.607178, -0.592529, 35.095215, -4.394531, -4.943848
753801, 0.490723, 0.608887, -0.643921, 35.400391, -1.281738, -2.075195
753821, 0.492065, 0.584229, -0.659424, 31.494148, 0.854492, -1.159668
753841, 0.463501, 0.594727, -0.670044, 27.771004, -1.525879, 2.502441
753861, 0.463135, 0.588989, -0.685181, 23.437508, -1.281738, 8.178711
753881, 0.435547, 0.580322, -0.705688, 16.662598, 0.183106, 13.732914
753901, 0.403931, 0.582275, -0.712280, 12.146000, 9.826660, 17.883301
753921, 0.443970, 0.508667, -0.675537, 9.155273, 25.817879, 30.822762
753941, 0.469116, 0.575562, -0.705322, 6.774904, 24.719246, 38.757324
753961, 0.506714, 0.553955, -0.669922, 2.807618, 15.014652, 36.560059
753981, 0.516968, 0.616943, -0.671387, 5.249023, 0.976563, 37.048340
754001, 0.576904, 0.667847, -0.732910, 1.525879, 8.850098, 16.540527
754021, 0.473511, 0.576782, -0.693726, 1.403809, 5.920412, 6.286623
754041, 0.464600, 0.605957, -0.675903, 1.770020, 9.216309, 2.014160
754061, 0.450684, 0.550537, -0.636841, 4.943848, 23.986824, 4.760742
754081, 0.505615, 0.576904, -0.682983, 5.249023, 33.203125, 5.737307
754101, 0.593018, 0.564087, -0.682129, 1.281738, 22.399910, 5.920412
754121, 0.593140, 0.566284, -0.690796, -0.244141, 8.422852, 7.568361
754141, 0.603149, 0.648926, -0.762573, -7.446291, 13.061527, 6.408693
754161, 0.614868, 0.764282, -0.651611, -14.221195, 21.911621, 17.333984
754181, 0.679932, 0.949707, -0.432739, 53.588882, -13.732914, 61.828629
754201, 0.790894, 0.540894, -0.745728, 64.270020, -24.963387, 51.879898
754221, 0.503174, 0.399170, -0.617310, 52.063004, -40.893555, 48.522964
754241, 0.458862, 0.322754, -0.657837, 45.288101, -27.404793, 44.494644
754261, 0.447998, 0.335571, -0.700439, 36.010742, 3.234864, 45.837418
754281, 0.546753, 0.362183, -0.713989, 35.461426, 21.850586, 50.170914
754301, 0.628906, 0.315552, -0.744995, 29.724129, 9.765625, 42.541504
754321, 0.597778, 0.308838, -0.722656, 27.038582, -0.427246, 32.897949
754341, 0.568237, 0.321899, -0.727051, 27.954109, 0.793457, 27.587898
754361, 0.577393, 0.312012, -0.746948, 28.259285, 8.789063, 27.771004
754381, 0.604858, 0.298828, -0.750732, 25.268562, 15.686039, 27.771004
754401, 0.651001, 0.363892, -0.740479, 27.343758, 19.836426, 29.235847
