timestamp,ax,ay,az,gx,gy,gz
1501095, 0.234619, 0.952148, -0.252563, 2.624512, 4.821777, 7.995607
1501115, 0.248779, 0.938599, -0.255249, 4.333496, 4.638672, 8.911133
1501135, 0.265625, 0.934937, -0.268677, 5.798342, 6.164553, 8.422852
1501155, 0.286255, 0.926636, -0.288330, 5.554201, 2.319336, 7.629396
1501175, 0.262939, 0.929443, -0.304688, 4.028320, 3.479005, 6.164553
1501195, 0.227661, 0.925171, -0.310059, 1.831055, 7.751467, 7.080080
1501215, 0.228394, 0.926758, -0.303223, -0.366211, 11.596684, 10.192871
1501235, 0.240479, 0.930054, -0.281738, -1.403809, 9.826660, 13.854984
1501255, 0.260986, 0.926880, -0.256714, -0.549316, 9.460449, 16.357422
1501275, 0.320801, 0.921509, -0.275391, -1.098633, 20.080566, 14.404301
1501295, 0.382080, 0.919312, -0.280029, -2.319336, 15.869144, 10.253906
1501315, 0.399780, 0.922119, -0.292725, -1.647950, 9.765625, 3.356935
1501335, 0.380859, 0.906494, -0.305054, -3.356935, 1.159668, -2.807618
1501355, 0.341797, 0.910156, -0.303467, -6.896975, -0.854492, -7.263186
1501375, 0.316162, 0.912842, -0.263306, -8.972168, -3.479005, -8.972168
1501395, 0.302612, 0.942627, -0.231934, -7.324221, -6.530764, -9.460449
1501415, 0.266479, 0.951172, -0.231445, -4.333496, -9.460449, -7.263186
1501435, 0.233154, 1.004883, -0.245972, -0.183106, -4.699707, -1.708985
1501455, 0.265747, 1.034546, -0.266235, 6.896975, -4.699707, 5.126953
1501475, 0.354004, 1.017822, -0.260620, 17.150879, -5.432129, 3.540040
1501495, 0.362793, 1.002319, -0.292603, 30.273445, -9.704590, -2.014160
1501515, 0.336914, 0.959961, -0.378906, 40.893555, -13.549809, -5.126953
1501535, 0.300781, 0.906494, -0.469482, 45.227066, -17.333984, -5.187988
1501555, 0.209106, 0.865112, -0.563721, 43.518066, -22.583015, 0.305176
1501575, 0.111450, 0.831787, -0.582886, 37.475586, -15.197758, 10.070801
1501595, 0.092896, 0.794067, -0.510010, 35.644531, 6.896975, 19.897461
1501615, 0.135254, 0.791382, -0.443237, 41.137695, 34.179688, 25.634773
1501635, 0.231934, 0.762451, -0.413452, 50.231949, 50.720230, 26.123055
1501655, 0.373657, 0.699219, -0.479004, 57.373062, 48.217789, 21.362305
1501675, 0.426514, 0.679443, -0.555176, 48.950211, 37.536621, 14.404301
1501695, 0.472290, 0.682861, -0.562988, 31.982430, 29.235847, 0.427246
1501715, 0.476074, 0.731567, -0.479614, 22.033691, 6.958010, -13.488773
1501735, 0.391602, 0.771973, -0.443237, 14.953617, -11.230473, -24.658211
1501755, 0.280518, 0.782959, -0.428223, 3.601075, -20.812988, -21.545410
1501775, 0.246460, 0.777710, -0.345459, -10.253906, -16.113281, -9.338379
1501795, 0.280762, 0.802979, -0.243164, -19.042969, 1.342773, 2.075195
1501815, 0.322876, 0.869995, -0.182983, -18.676758, 20.690918, 10.803223
1501835, 0.411377, 0.914429, -0.183960, -10.559082, 34.057617, 15.258793
1501855, 0.461304, 0.933594, -0.237427, -5.737307, 26.367195, 9.094238
1501875, 0.441650, 0.938477, -0.294067, -6.286623, 13.122562, 1.586915
1501895, 0.401245, 0.971802, -0.332886, -10.925293, 1.953125, -7.751467
1501915, 0.329712, 1.011597, -0.349365, -15.625004, -2.441406, -13.427738
1501935, 0.270630, 1.041992, -0.329468, -16.357422, -3.784181, -15.014652
1501955, 0.249756, 1.024536, -0.292725, -12.512211, -1.770020, -11.901859
1501975, 0.246826, 0.974121, -0.262695, -5.065918, 2.746582, -9.216309
1501995, 0.262207, 0.891235, -0.269287, 1.037598, 8.056641, -7.934572
1502015, 0.284668, 0.837158, -0.323730, 2.563477, 14.526371, -5.371094
1502035, 0.338135, 0.799805, -0.383423, -7.141115, 17.517090, -1.586915
1502055, 0.364014, 0.797241, -0.352417, -14.160160, 11.230473, 0.610352
1502075, 0.342773, 0.844238, -0.346558, -15.563969, 4.272461, 2.685547
1502095, 0.361206, 1.129517, -0.417603, -16.479492, 3.601075, 11.779789
1502115, 0.434570, 0.910889, -0.316162, -15.869144, -0.671387, 11.291508
1502135, 0.466187, 0.870972, -0.305420, -12.268070, -16.540527, 5.249023
1502155, 0.408813, 0.885620, -0.352783, -13.366703, -26.245125, 0.244141
1502175, 0.338623, 0.908325, -0.291016, -12.451176, -28.625496, -0.061035
1502195, 0.294678, 0.913086, -0.253784, -5.920412, -25.207527, 2.441406
1502215, 0.303955, 0.906860, -0.288086, 2.624512, -8.178711, 4.882813
1502235, 0.311890, 0.889160, -0.314087, 5.981447, -1.586915, 6.958010
1502255, 0.349121, 0.878174, -0.363647, 5.859377, -0.732422, 7.934572
1502275, 0.370117, 0.872192, -0.366211, 2.990724, -1.464844, 7.080080
1502295, 0.371216, 0.881226, -0.336792, 2.685547, -2.563477, 5.493164
1502315, 0.351929, 0.877563, -0.353638, 2.746582, -2.197266, 4.943848
1502335, 0.365234, 0.867676, -0.383301, 0.610352, 0.671387, 4.211426
1502355, 0.382935, 0.859131, -0.394897, -3.601075, -0.854492, 2.929688
1502375, 0.386353, 0.859375, -0.385132, -8.117676, -4.577637, 1.220703
1502395, 0.382446, 0.883911, -0.360107, -10.559082, -8.666992, 0.122070
1502415, 0.310913, 0.875610, -0.338623, -11.108402, -5.249023, 0.610352
1502435, 0.325073, 0.876099, -0.349487, -11.840824, 0.854492, 2.929688
1502455, 0.373901, 0.869141, -0.383057, -15.014652, 4.211426, 2.563477
1502475, 0.395630, 0.867310, -0.367798, -19.836426, -0.976563, 1.098633
1502495, 0.371704, 0.879517, -0.342285, -23.132332, -4.577637, -0.610352
1502515, 0.320068, 0.891846, -0.303711, -24.292000, 0.915528, -0.488281
1502535, 0.309814, 0.891113, -0.274658, -22.460945, 11.718754, 1.037598
1502555, 0.328613, 0.902466, -0.254150, -20.385742, 12.023930, 4.394531
1502575, 0.385376, 0.901611, -0.241577, -17.517090, 9.216309, 5.371094
1502595, 0.410034, 0.906006, -0.239014, -13.244633, -0.366211, 1.770020
1502615, 0.378540, 0.902100, -0.247803, -11.230473, -2.197266, -0.183106
1502635, 0.360718, 0.925415, -0.186401, -4.272461, -10.070801, 0.000000
1502655, 0.327026, 0.912354, -0.246582, 4.394531, -8.422852, 1.525879
1502675, 0.368896, 0.900146, -0.287964, 7.629396, -6.896975, 0.244141
1502695, 0.288696, 0.898926, -0.309082, 11.779789, -3.967286, -0.061035
1502715, 0.247803, 0.889038, -0.353027, 12.634281, 6.103518, 2.258301
1502735, 0.259521, 0.886597, -0.359497, 7.934572, 23.498543, 5.737307
1502755, 0.298096, 0.925049, -0.284180, 10.437012, 28.320320, 6.103518
1502775, 0.286987, 0.943359, -0.232544, 21.362305, 32.226563, 4.272461
1502795, 0.230713, 0.905151, -0.284302, 32.653809, 52.551285, 0.000000
1502815, 0.268921, 0.920166, -0.256958, 31.555183, 62.927261, 1.647950
1502835, 0.298340, 0.922119, -0.222046, 30.456551, 68.908691, 5.187988
1502855, 0.412231, 0.945679, -0.176514, 29.479988, 74.035645, 3.723145
1502875, 0.534912, 0.947510, -0.148315, 31.860359, 72.692871, -12.817387
1502895, 0.648071, 0.975708, -0.106201, 36.376953, 61.096207, -33.996582
1502915, 0.661987, 0.895508, -0.177734, 35.156250, 36.926270, -53.771988
1502935, 0.604736, 0.835938, -0.201294, 26.855476, 6.530764, -61.096207
1502955, 0.460815, 0.869263, -0.212402, 17.944336, -14.343266, -58.105484
1502975, 0.381348, 0.886841, -0.219482, 8.239746, -15.563969, -54.321304
1502995, 0.419922, 0.888184, -0.222656, 6.713869, -22.277840, -50.659195
1503015, 0.424927, 0.865967, -0.274170, 1.403809, -37.902832, -46.264664
1503035, 0.334839, 0.865601, -0.322021, -9.460449, -54.870621, -36.560059
1503055, 0.228516, 0.874268, -0.286255, -18.920898, -61.462418, -21.423340
1503075, 0.147095, 0.910889, -0.201904, -19.470215, -56.335464, 0.671387
1503095, 0.114136, 0.940674, -0.185547, -13.488773, -45.288101, 22.094727
1503115, 0.159424, 0.955444, -0.217651, -7.751467, -31.799324, 33.569336
1503135, 0.212280, 0.911865, -0.319580, -8.544922, -18.432617, 36.987305
1503155, 0.286499, 0.941406, -0.310425, -11.596684, -13.671879, 34.240723
1503175, 0.316528, 0.931641, -0.366821, -14.709476, -23.315437, 21.057129
1503195, 0.268799, 0.922485, -0.359863, -19.897461, -30.029305, 13.061527
1503215, 0.205811, 0.946777, -0.300049, -19.042969, -33.142090, 12.390141
1503235, 0.174438, 0.906128, -0.345947, -16.540527, -29.479988, 14.648441
1503255, 0.180298, 0.920166, -0.375854, -16.174316, -21.911621, 15.869144
1503275, 0.212646, 0.921875, -0.371582, -16.662598, -18.676758, 15.808109
1503295, 0.200073, 0.925781, -0.400635, -13.977055, -15.075687, 12.023930
1503315, 0.200195, 0.896240, -0.450317, -13.610844, -7.141115, 8.361816
1503335, 0.198120, 0.895752, -0.459717, -18.127441, 2.197266, 6.774904
1503355, 0.204102, 0.894287, -0.427124, -18.981934, 13.793949, 9.521484
1503375, 0.238037, 0.890747, -0.425049, -21.972656, 22.827156, 9.460449
1503395, 0.258911, 0.904663, -0.408325, -24.292000, 31.921394, 7.080080
1503415, 0.317627, 0.898438, -0.400513, -26.062019, 35.583496, 2.868653
1503435, 0.385864, 0.901978, -0.374268, -25.024422, 29.174812, -3.967286
1503455, 0.450439, 0.904419, -0.354126, -23.315437, 22.460945, -13.244633
1503475, 0.445923, 0.881470, -0.302490, -17.822266, 9.887695, -23.620613
1503495, 0.311157, 0.918213, -0.304688, -8.422852, 6.530764, -33.386230
1503515, 0.309570, 0.937378, -0.262207, -4.211426, 6.164553, -25.268562
1503535, 0.336060, 0.930664, -0.248657, 5.187988, 9.460449, -24.780281
1503555, 0.390137, 0.905640, -0.271606, 6.286623, 16.357422, -25.390633
1503575, 0.394409, 0.900513, -0.200317, 5.493164, 18.432617, -24.475105
1503595, 0.461060, 0.925293, -0.109741, 10.681152, 14.648441, -26.245125
1503615, 0.428833, 0.921631, -0.046631, 22.338875, 8.850098, -25.329597
1503635, 0.431030, 0.896240, -0.087524, 28.991707, 0.244141, -20.202637
1503655, 0.414673, 0.883179, -0.200317, 19.470215, -11.108402, -14.343266
1503675, 0.462524, 0.924561, -0.157349, 4.882813, -29.357918, -8.850098
1503695, 0.409424, 0.951416, -0.109741, 1.647950, -49.621597, -8.361816
1503715, 0.262207, 0.944946, -0.074829, 3.356935, -51.452652, -1.953125
1503735, 0.216431, 0.954834, -0.111450, 2.868653, -36.560059, 9.094238
1503755, 0.188232, 0.959595, -0.086060, 4.516602, -30.456551, 20.385742
1503775, 0.223022, 0.942017, -0.150269, 2.990724, -25.634773, 26.062019
1503795, 0.284058, 0.955444, -0.174438, -3.356935, -21.911621, 26.123055
1503815, 0.283691, 0.956055, -0.176147, -7.690432, -23.071297, 22.644051
1503835, 0.315063, 0.949463, -0.174683, -7.995607, -28.869637, 20.629883
1503855, 0.295776, 0.960693, -0.245361, -11.596684, -31.494148, 15.930180
1503875, 0.209839, 0.962158, -0.219727, -11.108402, -33.935547, 13.305668
1503895, 0.161377, 0.955078, -0.241333, -8.361816, -27.343758, 17.883301
1503915, 0.186890, 0.932251, -0.306030, -9.643555, -16.845703, 19.775391
1503935, 0.247314, 0.934570, -0.333618, -9.399414, -13.732914, 15.686039
1503955, 0.209595, 0.914551, -0.353149, -10.986328, -12.573246, 14.709476
1503975, 0.215942, 0.947754, -0.353394, -10.559082, -10.864258, 12.695316
1503995, 0.183716, 0.935059, -0.327515, -7.202150, -4.577637, 11.779789
1504015, 0.197021, 0.946411, -0.348022, -3.967286, -0.061035, 12.573246
1504035, 0.194336, 0.937866, -0.361816, -7.324221, 6.958010, 5.737307
1504055, 0.159546, 0.950439, -0.274048, -5.676271, 14.831547, 6.408693
1504075, 0.170410, 0.951660, -0.234619, 0.488281, 21.911621, 9.704590
1504095, 0.193848, 0.958374, -0.258423, 5.310059, 27.221687, 13.122562
1504115, 0.229004, 0.958008, -0.265869, 2.624512, 30.883797, 11.474613
1504135, 0.205200, 0.980591, -0.188721, 5.981447, 29.602058, 10.620117
1504155, 0.197876, 0.984131, -0.159424, 12.390141, 33.142090, 8.850098
1504175, 0.176514, 0.983398, -0.139038, 18.493652, 40.283203, 9.216309
1504195, 0.188110, 1.001709, -0.110596, 26.794441, 44.311539, 10.925293
1504215, 0.221191, 0.982056, -0.082886, 36.804199, 42.236328, 14.343266
1504235, 0.262817, 0.966064, -0.123779, 44.189453, 38.391113, 14.587406
1504255, 0.265015, 0.928589, -0.196289, 43.090820, 44.677750, 13.732914
1504275, 0.322388, 0.942993, -0.204590, 37.841797, 48.828140, 12.023930
1504295, 0.382935, 0.907349, -0.228394, 35.400391, 42.663574, 7.507326
1504315, 0.475586, 0.848145, -0.220093, 22.033691, 40.222168, 16.113281
1504335, 0.512207, 0.832275, -0.232056, 13.916019, 38.330078, 18.005371
1504355, 0.555542, 0.814331, -0.183594, 6.469728, 31.494148, 23.315437
1504375, 0.619995, 0.812134, -0.151489, 1.831055, 21.118164, 27.709969
1504395, 0.754028, 0.881958, -0.133789, 6.774904, -4.638672, 17.333984
1504415, 0.723633, 0.870728, -0.222412, 12.756351, -21.728516, -6.530764
1504435, 0.618896, 0.868530, -0.261230, 13.549809, -38.452148, -23.620613
1504455, 0.460693, 0.860352, -0.304321, 12.084965, -48.950211, -30.822762
1504475, 0.337402, 0.855835, -0.350586, 7.751467, -47.302261, -29.785164
1504495, 0.263184, 0.877808, -0.326904, 2.136230, -29.724129, -20.568848
1504515, 0.281616, 0.876465, -0.343628, -0.671387, -18.188477, -14.465336
1504535, 0.289063, 0.885132, -0.329346, -3.051759, -9.948730, -9.948730
1504555, 0.281982, 0.893433, -0.307983, -3.967286, -6.103518, -4.272461
1504575, 0.295898, 0.900635, -0.266846, -1.953125, -2.502441, 1.159668
1504595, 0.330322, 0.899292, -0.274780, 1.342773, 0.000000, 4.272461
1504615, 0.354126, 0.894775, -0.276245, 3.784181, 0.488281, 5.310059
1504635, 0.383545, 0.887939, -0.296143, 5.920412, -2.746582, 5.310059
1504655, 0.389771, 0.876831, -0.349121, 3.967286, -1.953125, 3.112794
1504675, 0.372192, 0.880493, -0.324829, 1.525879, -1.342773, 1.647950
1504695, 0.394043, 0.879883, -0.332520, 0.244141, -7.324221, 0.732422
1504715, 0.356689, 0.884766, -0.320557, -1.892090, -8.239746, 0.000000
1504735, 0.321655, 0.892944, -0.290771, -0.488281, -4.516602, 1.647950
1504755, 0.325195, 0.887329, -0.290894, 1.525879, 0.854492, 4.211426
1504775, 0.357788, 0.888428, -0.309326, 2.746582, 3.967286, 5.493164
1504795, 0.386719, 0.880249, -0.318604, 2.380371, 4.333496, 4.882813
1504815, 0.417847, 0.873779, -0.321533, 1.892090, 1.464844, 3.173829
1504835, 0.426270, 0.880371, -0.324463, 0.488281, -4.211426, -0.976563
1504855, 0.366699, 0.887085, -0.300537, 0.854492, -7.324221, -2.014160
1504875, 0.331421, 0.885742, -0.293335, 2.746582, -4.394531, 0.671387
1504895, 0.360352, 0.879272, -0.330811, 3.784181, -2.197266, 2.502441
1504915, 0.380493, 0.868408, -0.358032, 0.732422, -0.305176, 1.525879
1504935, 0.379517, 0.877808, -0.330200, -1.403809, -0.610352, 0.854492
1504955, 0.386841, 0.878052, -0.318970, -1.892090, -1.831055, 0.244141
1504975, 0.376099, 0.875732, -0.307251, -1.831055, -1.892090, -1.098633
