timestamp,ax,ay,az,gx,gy,gz
1544478, 0.209473, 0.927124, -0.323242, -0.061035, -0.671387, 0.000000
1544498, 0.197021, 0.930298, -0.328491, -0.183106, 1.708985, 0.488281
1544518, 0.200073, 0.932251, -0.316528, 0.183106, 1.342773, 1.831055
1544538, 0.201416, 0.929321, -0.331543, 0.488281, 2.197266, 2.868653
1544558, 0.219482, 0.926392, -0.333374, -0.732422, 3.540040, 3.234864
1544578, 0.236694, 0.933960, -0.314331, -0.366211, 2.319336, 2.319336
1544598, 0.239868, 0.925049, -0.325806, 0.061035, 0.427246, 1.037598
1544618, 0.231323, 0.929443, -0.332275, -0.732422, -0.366211, -0.305176
1544638, 0.219604, 0.928345, -0.313843, -0.671387, -1.464844, -0.427246
1544658, 0.228027, 0.928589, -0.319824, 0.122070, -1.403809, -1.159668
1544678, 0.216919, 0.925659, -0.333252, -0.488281, -1.647950, -1.525879
1544698, 0.206909, 0.928833, -0.326294, -1.159668, -1.403809, -0.854492
1544718, 0.211792, 0.930664, -0.319092, -1.098633, -0.854492, -0.183106
1544738, 0.216431, 0.931763, -0.313110, -0.610352, -0.488281, -0.122070
1544758, 0.219604, 0.931030, -0.313232, 0.122070, -0.183106, -0.122070
1544778, 0.225220, 0.930420, -0.319824, 0.366211, -0.549316, -0.610352
1544798, 0.224365, 0.930420, -0.315674, 0.549316, -1.464844, -1.037598
1544818, 0.219604, 0.933105, -0.309570, 1.342773, -1.098633, -1.586915
1544838, 0.203247, 0.935181, -0.310913, 2.990724, 0.427246, -1.342773
1544858, 0.193970, 0.935547, -0.313110, 3.906251, 3.906251, -0.671387
1544878, 0.170776, 0.938110, -0.312256, 4.882813, 11.657719, 0.366211
1544898, 0.159790, 0.937866, -0.289673, 6.774904, 18.493652, 3.540040
1544918, 0.179321, 0.946899, -0.262817, 11.230473, 21.728516, 7.507326
1544938, 0.221924, 0.941772, -0.261353, 16.906738, 19.348145, 10.375977
1544958, 0.272705, 0.932251, -0.291016, 21.667480, 13.916019, 10.192871
1544998, 0.323120, 0.910767, -0.385864, 21.179199, 13.488773, -1.647950
1545018, 0.243774, 0.915649, -0.432373, 14.160160, 14.465336, -6.958010
1545038, 0.207275, 0.924683, -0.402222, 12.451176, 10.437012, -3.112794
1545058, 0.254639, 1.025024, -0.348389, 23.803719, 4.699707, 3.479005
1545078, 0.332764, 0.996338, -0.366943, 42.297363, -3.540040, 11.535648
1545098, 0.389526, 0.937378, -0.432373, 65.124512, -12.573246, 15.136723
1545118, 0.360107, 0.814697, -0.550171, 84.106445, -28.686531, 14.099125
1545138, 0.241699, 0.696167, -0.725952, 86.486816, -34.545898, 7.446291
1545158, 0.108765, 0.603394, -0.891235, 64.208984, -21.179199, -1.159668
1545178, 0.003174, 0.562500, -0.913696, 29.174812, 5.493164, -4.943848
1545198, -0.036987, 0.581299, -0.779541, -1.098633, 32.104492, -0.122070
1545218, 0.009399, 0.658813, -0.582764, -24.963387, 65.612793, 26.916512
1545238, 0.093994, 0.761353, -0.473755, -25.695808, 95.459015, 45.166031
1545258, 0.244141, 0.864868, -0.313965, -19.897461, 123.596222, 49.743668
1545278, 0.397705, 0.892334, -0.204346, -4.577637, 132.507324, 44.189453
1545298, 0.496338, 0.893433, -0.194824, 6.774904, 119.384796, 37.414551
1545318, 0.570190, 0.844238, -0.271606, -1.586915, 94.970734, 26.489265
1545338, 0.570190, 0.812622, -0.286743, -20.080566, 75.439453, 11.169437
1545358, 0.524536, 0.869995, -0.219727, -32.348633, 54.260269, -6.408693
1545378, 0.479248, 0.942017, -0.130737, -33.508301, 35.888672, -17.517090
1545398, 0.436768, 1.049927, -0.069214, -25.268562, -0.061035, -12.817387
1545418, 0.460449, 1.083374, -0.086548, -20.080566, -34.484863, 4.943848
1545438, 0.488770, 0.977539, -0.114746, -9.521484, -52.490250, 10.437012
1545458, 0.486328, 0.921143, -0.132324, 7.568361, -52.246109, 3.540040
1545478, 0.517944, 0.866821, -0.230591, 20.874023, -43.884277, -12.573246
1545498, 0.472778, 0.810547, -0.346802, 22.338875, -51.269547, -17.272949
1545518, 0.408569, 0.818481, -0.408081, 18.615723, -66.162109, -10.803223
1545538, 0.338257, 0.831787, -0.428711, 13.671879, -68.847656, -5.737307
1545558, 0.291016, 0.841064, -0.463501, 9.948730, -52.734390, -1.342773
1545578, 0.293945, 0.827881, -0.506226, 3.051759, -31.677254, 1.708985
1545598, 0.321045, 0.833374, -0.474731, -8.178711, -15.991215, 7.629396
1545618, 0.353516, 0.840454, -0.408081, -10.925293, -11.962894, 9.704590
1545638, 0.379272, 0.847290, -0.363281, -9.094238, -7.202150, 8.850098
1545658, 0.406494, 0.862427, -0.339844, -4.821777, -8.178711, 7.751467
1545678, 0.415405, 0.858398, -0.362793, -0.183106, -14.404301, 6.225588
1545698, 0.414917, 0.845459, -0.406250, 0.549316, -18.981934, 4.699707
1545718, 0.440308, 0.845825, -0.386353, 1.159668, -23.742683, 1.831055
1545738, 0.404297, 0.858887, -0.374756, 3.967286, -27.526863, -1.770020
1545758, 0.356567, 0.848877, -0.388916, 6.530764, -29.479988, -1.098633
1545778, 0.334961, 0.844604, -0.409790, 8.850098, -21.789551, -0.732422
1545798, 0.333740, 0.842041, -0.444702, 8.728027, -16.418457, 0.244141
1545818, 0.358154, 0.810669, -0.510986, 2.624512, -12.146000, -0.366211
1545838, 0.339966, 0.817261, -0.469604, -0.854492, -14.465336, 0.793457
1545858, 0.321411, 0.815186, -0.499268, -3.967286, -10.986328, 3.051759
1545878, 0.372559, 0.807983, -0.538330, -11.657719, -4.455566, 2.319336
1545898, 0.423828, 0.815430, -0.504883, -19.531250, -5.187988, -1.770020
1545918, 0.444336, 0.826050, -0.465942, -24.169930, -14.587406, -6.591799
1545938, 0.478271, 0.834106, -0.451660, -27.587898, -30.151375, -12.329105
1545958, 0.431763, 0.836792, -0.397583, -28.381355, -38.818359, -19.958496
1545978, 0.172485, 0.894287, -0.324097, -5.615236, -36.926270, -19.287109
1545998, 0.107178, 0.876221, -0.404663, -0.366211, -18.127441, -9.399414
1546018, 0.065918, 0.886719, -0.389404, 6.042482, 10.681152, -1.586915
1546038, 0.125854, 0.904541, -0.338135, 16.113281, 24.169930, 6.042482
1546058, 0.178955, 0.889404, -0.423584, 23.620613, 37.170410, 6.347658
1546078, 0.225708, 0.879639, -0.421509, 26.245125, 42.724609, 6.896975
1546098, 0.223633, 0.887207, -0.432739, 26.550301, 42.968750, 6.469728
1546118, 0.189575, 0.918579, -0.400146, 26.062019, 51.025406, 4.028320
1546138, 0.176514, 0.939087, -0.355957, 31.494148, 76.782227, -1.831055
1546158, 0.349487, 0.920654, -0.356079, 34.423828, 112.609894, -10.620117
1546178, 0.549438, 0.877319, -0.332153, 36.071777, 90.087921, -20.324707
1546198, 0.588501, 0.864868, -0.367065, 31.860359, 61.462418, -30.517586
1546218, 0.581055, 0.894531, -0.374756, 18.615723, 35.766602, -43.334961
1546238, 0.544189, 0.875854, -0.302734, 10.681152, 16.601563, -64.392090
1546258, 0.432129, 0.872070, -0.212769, 13.916019, 5.187988, -51.330582
1546278, 0.500488, 0.817383, -0.268555, 15.258793, -7.751467, -43.395996
1546298, 0.458984, 0.848267, -0.317383, 12.390141, -17.822266, -31.677254
1546318, 0.509888, 0.841187, -0.335693, 7.324221, -35.095215, -25.390633
1546338, 0.545410, 0.838257, -0.364746, -0.183106, -49.499527, -23.864754
1546358, 0.395142, 0.859619, -0.348633, -9.094238, -72.570801, -19.775391
1546378, 0.269531, 0.850220, -0.397095, -15.991215, -74.645996, -8.972168
1546398, 0.166748, 0.877441, -0.349731, -15.075687, -67.321777, 2.014160
1546418, 0.094971, 0.894043, -0.347046, -8.605957, -54.626480, 15.686039
1546438, 0.053101, 0.899780, -0.400513, -4.028320, -34.423828, 28.076180
1546458, 0.089355, 0.876709, -0.506592, -10.375977, -9.704590, 33.569336
1546478, 0.165161, 0.887939, -0.478149, -14.892582, -3.967286, 33.020020
1546498, 0.202026, 0.863037, -0.560425, -18.920898, -1.342773, 27.526863
1546518, 0.214600, 0.880005, -0.495972, -23.986824, -10.742188, 22.399910
1546538, 0.142334, 0.867554, -0.509399, -19.226074, -10.253906, 17.089844
1546558, 0.147217, 0.866333, -0.518066, -18.859863, -0.549316, 14.831547
1546578, 0.116211, 0.851440, -0.542236, -14.038090, 5.065918, 13.732914
1546598, 0.130615, 0.831787, -0.624146, -17.211914, 10.681152, 12.939457
1546618, 0.119263, 0.831543, -0.626343, -19.226074, 20.446777, 12.756351
1546638, 0.177246, 0.818970, -0.627075, -23.132332, 27.648933, 11.169437
1546658, 0.229492, 0.793091, -0.619873, -27.771004, 36.499023, 10.375977
1546678, 0.280518, 0.817261, -0.556030, -28.564461, 36.437988, 11.718754
1546698, 0.387329, 0.820435, -0.568604, -31.799324, 31.372078, 6.591799
1546718, 0.431152, 0.839966, -0.502075, -31.494148, 20.019531, -2.136230
1546738, 0.458496, 0.866577, -0.427002, -14.709476, 1.098633, -34.423828
1546758, 0.347656, 0.874268, -0.454102, -5.859377, 2.197266, -40.283203
1546778, 0.351318, 0.829834, -0.447876, -2.807618, 1.770020, -41.076660
1546798, 0.321045, 0.836060, -0.489746, -9.460449, 9.704590, -37.536621
1546818, 0.337036, 0.866699, -0.344727, -11.962894, 11.230473, -30.029305
1546838, 0.382324, 0.860962, -0.281860, -7.568361, 17.150879, -25.634773
1546858, 0.408325, 0.888794, -0.232422, 2.014160, 9.704590, -23.071297
1546878, 0.412720, 0.886353, -0.266235, 6.652834, 3.173829, -21.118164
1546898, 0.435425, 0.900024, -0.238281, 7.934572, -3.051759, -21.606445
1546918, 0.417358, 0.910400, -0.201172, 6.958010, -16.479492, -24.719246
1546938, 0.441772, 0.934570, -0.164185, 8.422852, -34.179688, -24.841316
1546958, 0.461426, 0.944092, -0.171021, 9.582520, -53.833023, -25.939949
1546978, 0.377319, 0.951660, -0.154541, 13.793949, -71.838379, -24.963387
1546998, 0.231201, 0.942993, -0.195557, 15.808109, -81.054688, -19.226074
1547018, 0.130981, 0.940186, -0.238892, 14.587406, -73.547363, -11.169437
1547038, 0.031006, 0.934570, -0.280029, 10.864258, -55.114761, -3.295899
1547058, 0.022217, 0.985596, -0.281250, 8.239746, -36.865234, 8.850098
1547078, 0.005493, 0.927124, -0.303223, 6.408693, -19.775391, 22.277840
1547098, 0.098389, 0.935547, -0.340454, 1.037598, -8.422852, 32.226563
1547118, 0.188232, 0.951538, -0.297119, -1.403809, -7.446291, 32.043457
1547138, 0.208496, 0.923462, -0.322510, -0.793457, -10.803223, 28.930672
1547158, 0.224487, 0.942749, -0.344360, -2.441406, -16.418457, 24.414070
1547178, 0.168091, 0.920410, -0.362793, -4.638672, -13.977055, 23.986824
1547198, 0.158447, 0.910645, -0.368042, -9.887695, -5.981447, 34.179688
1547218, 0.198364, 0.895996, -0.385864, -15.014652, 0.366211, 40.161133
1547238, 0.235474, 0.895752, -0.364502, -16.906738, 1.159668, 44.067383
1547258, 0.272949, 0.896484, -0.395996, -16.906738, 3.112794, 41.015625
1547278, 0.330200, 0.909546, -0.403564, -16.723633, 2.319336, 31.494148
1547298, 0.327393, 0.897583, -0.435913, -11.657719, -11.596684, 13.854984
1547318, 0.257935, 0.907227, -0.452148, -10.131836, -17.700195, 7.446291
1547338, 0.225220, 0.876953, -0.470703, -9.338379, -19.165039, 0.549316
1547358, 0.151733, 0.886597, -0.458130, -8.789063, -13.549809, 0.732422
1547378, 0.143677, 0.902100, -0.471924, -8.361816, -2.502441, 0.549316
1547398, 0.126709, 0.891724, -0.436646, -6.408693, 8.911133, 2.441406
1547418, 0.127197, 0.908936, -0.453491, -5.371094, 16.601563, 2.746582
1547438, 0.104248, 0.928833, -0.381226, -2.563477, 28.747566, 1.403809
1547458, 0.092773, 0.920410, -0.364014, 6.408693, 24.230965, 6.774904
1547478, 0.128540, 0.920532, -0.391602, 8.300781, 32.592773, 8.056641
1547498, 0.144409, 0.955566, -0.303101, 11.047363, 33.569336, 9.582520
1547518, 0.170044, 0.949463, -0.301514, 14.587406, 39.062500, 10.192871
1547538, 0.193237, 0.943237, -0.266724, 19.836426, 37.719727, 11.596684
1547558, 0.244385, 0.942139, -0.305664, 18.676758, 36.376953, 10.925293
1547578, 0.272095, 0.960449, -0.238525, 20.751953, 21.911621, 10.009766
1547598, 0.259277, 0.964111, -0.224854, 26.550301, 11.779789, 6.103518
1547618, 0.231567, 0.943604, -0.234863, 30.578621, 9.155273, 4.516602
1547638, 0.185181, 0.937866, -0.255493, 31.921394, 16.479492, 4.821777
1547658, 0.179688, 0.942383, -0.261108, 30.456551, 36.621094, 11.840824
1547678, 0.332642, 0.903687, -0.261230, 23.071297, 54.321304, 20.629883
1547698, 0.423706, 0.871582, -0.243896, 21.972656, 55.114761, 21.179199
1547718, 0.492432, 0.839355, -0.211060, 20.812988, 44.982925, 29.235847
1547738, 0.561035, 0.816284, -0.208130, 24.414070, 39.367676, 33.386230
1547758, 0.687012, 0.778442, -0.238281, 26.062019, 26.123055, 33.142090
1547778, 0.841309, 0.791016, -0.264893, 30.212410, 10.681152, 21.545410
1547798, 0.880493, 0.784302, -0.403809, 31.250008, -12.695316, -6.103518
1547818, 0.685791, 0.770752, -0.467163, 25.024422, -32.714844, -28.991707
1547838, 0.485107, 0.771606, -0.489502, 21.362305, -41.198730, -36.560059
1547858, 0.352661, 0.773926, -0.598511, 9.460449, -34.729004, -37.048340
1547878, 0.307617, 0.812012, -0.502075, -6.408693, -21.057129, -31.433113
1547898, 0.272949, 0.835327, -0.448242, -10.986328, -18.066406, -26.672371
1547918, 0.197754, 0.850952, -0.409180, -10.498047, -10.070801, -17.639160
1547938, 0.192383, 0.860229, -0.387573, -8.117676, 1.403809, -7.202150
1547958, 0.219116, 0.866699, -0.373657, -4.699707, 8.789063, 2.807618
1547978, 0.275146, 0.866455, -0.356079, 0.000000, 9.887695, 10.986328
1547998, 0.340942, 0.850830, -0.406738, 2.929688, 10.742188, 13.732914
1548018, 0.366333, 0.844604, -0.407104, 2.746582, 8.728027, 14.099125
1548038, 0.375000, 0.839111, -0.425049, 3.234864, 5.249023, 14.404301
1548058, 0.408081, 0.833862, -0.430664, -0.305176, 3.784181, 12.268070
1548078, 0.416992, 0.831787, -0.427368, -1.525879, -1.159668, 9.765625
1548098, 0.408081, 0.836548, -0.410522, -2.014160, -6.530764, 8.056641
1548118, 0.403076, 0.837402, -0.409790, -2.014160, -8.728027, 6.530764
1548138, 0.395630, 0.839966, -0.402466, -1.098633, -7.141115, 4.760742
1548158, 0.398315, 0.836670, -0.413940, -0.732422, -4.638672, 2.746582
1548178, 0.397095, 0.836914, -0.399292, -0.183106, -4.028320, 1.464844
