timestamp,ax,ay,az,gx,gy,gz
1573999, 0.388672, 0.855835, -0.386108, 3.906251, -4.211426, 0.854492
1574019, 0.380127, 0.837036, -0.412598, 2.990724, -2.502441, 0.244141
1574039, 0.361206, 0.839722, -0.410034, 0.610352, -2.441406, 1.586915
1574059, 0.349976, 0.842773, -0.407349, -1.281738, -0.061035, 4.089355
1574079, 0.352661, 0.848145, -0.373291, -1.220703, 1.953125, 6.713869
1574099, 0.372803, 0.849976, -0.372314, 0.000000, 3.051759, 8.789063
1574119, 0.400513, 0.844360, -0.376953, 0.915528, 2.014160, 9.765625
1574139, 0.418457, 0.842896, -0.380371, 1.281738, 0.427246, 8.850098
1574159, 0.414063, 0.840088, -0.381836, 1.647950, -0.488281, 7.751467
1574179, 0.402344, 0.840698, -0.393799, 1.586915, -1.708985, 7.629396
1574199, 0.383911, 0.836426, -0.400513, 0.854492, -3.845216, 9.094238
1574219, 0.282593, 0.849854, -0.406372, -1.525879, 1.159668, 17.822266
1574239, 0.246826, 0.847168, -0.389771, -1.892090, 16.967773, 28.930672
1574259, 0.307495, 0.856567, -0.320557, 0.854492, 36.193848, 38.269043
1574279, 0.454834, 0.898560, -0.233398, 12.451176, 51.696793, 39.184570
1574299, 0.615967, 1.003052, -0.255737, 37.475586, 43.457031, 21.240234
1574319, 0.680542, 1.027222, -0.454956, 52.673355, 20.751953, 1.708985
1574339, 0.655762, 0.970337, -0.590820, 57.373062, -12.390141, -16.479492
1574359, 0.496094, 0.886108, -0.663696, 59.143082, -37.719727, -44.860855
1574379, 0.240479, 0.795776, -0.701050, 58.044449, -43.640137, -67.199707
1574399, -0.027832, 0.703125, -0.707520, 55.786148, -2.014160, -78.796387
1574419, -0.049805, 0.557861, -0.682861, 46.508804, 34.606934, -66.467285
1574439, 0.018677, 0.476685, -0.651245, 29.235847, 65.063477, -48.889175
1574459, 0.134888, 0.456421, -0.629639, 2.990724, 81.542969, -35.949707
1574479, 0.257813, 0.520752, -0.507324, -20.690918, 88.439941, -19.165039
1574499, 0.419556, 0.604858, -0.348877, -39.978027, 82.336426, -2.502441
1574519, 0.567017, 0.723145, -0.230225, -51.513687, 70.617676, 12.817387
1574539, 0.637573, 0.917847, -0.190918, -59.143082, 54.931656, 30.822762
1574559, 0.719116, 0.984741, -0.147583, -60.913101, 30.822762, 52.490250
1574579, 0.826538, 0.911499, -0.117188, -59.326187, 6.958010, 56.213394
1574599, 0.868042, 0.840698, -0.122559, -48.400894, -21.972656, 10.437012
1574619, 0.677368, 0.860474, -0.124756, -40.588379, -35.400391, -9.216309
1574639, 0.549805, 0.840088, -0.106079, -30.273445, -31.433113, -10.925293
1574659, 0.617920, 0.915161, -0.139893, -18.737793, -24.658211, -18.432617
1574679, 0.628052, 0.928589, -0.136597, -3.845216, -36.560059, -27.648933
1574699, 0.532471, 0.889771, -0.225952, 7.751467, -56.396500, -34.362793
1574719, 0.336670, 0.859131, -0.390991, 7.263186, -58.898941, -33.142090
1574739, 0.203979, 0.848999, -0.378906, 0.915528, -41.564941, -23.437508
1574759, 0.207397, 0.865234, -0.325317, 1.464844, -18.981934, -11.413578
1574779, 0.326782, 0.866455, -0.377197, -0.549316, -4.333496, -0.488281
1574799, 0.370239, 0.858154, -0.336914, -1.037598, -8.117676, 3.234864
1574819, 0.384399, 0.864624, -0.369629, -1.831055, -2.624512, 2.319336
1574839, 0.399170, 0.869995, -0.352051, -3.112794, 5.126953, 0.427246
1574859, 0.401245, 0.865967, -0.339111, -3.051759, 5.371094, -0.610352
1574879, 0.402588, 0.859985, -0.359497, -3.723145, 5.554201, -2.624512
1574899, 0.344360, 0.870361, -0.339111, -5.432129, 6.958010, -1.342773
1574919, 0.382568, 0.920166, -0.222412, 3.479005, 1.953125, -0.549316
1574939, 0.291748, 0.932129, -0.231934, 29.052742, -0.427246, -7.629396
1574959, 0.192261, 0.901001, -0.367432, 37.963867, 13.122562, -8.117676
1574979, 0.208862, 0.877441, -0.411377, 39.794922, 37.170410, -4.760742
1574999, 0.264404, 0.874146, -0.412598, 32.348633, 48.828140, 1.159668
1575019, 0.328247, 0.932129, -0.303955, 30.822762, 57.861343, -1.953125
1575039, 0.373657, 0.941772, -0.274780, 38.024902, 65.490723, -11.840824
1575059, 0.487427, 0.862427, -0.317993, 34.912109, 66.772461, -17.456055
1575079, 0.634521, 0.856079, -0.255371, 30.700691, 41.381836, -21.423340
1575099, 0.581787, 0.875977, -0.303223, 24.353035, 21.850586, -30.578621
1575119, 0.540405, 0.878784, -0.296143, 17.089844, 18.127441, -42.846680
1575139, 0.544678, 0.854980, -0.265259, 12.451176, 7.080080, -47.851578
1575159, 0.494751, 0.838379, -0.311646, 0.610352, -26.916512, -40.954590
1575179, 0.459106, 0.831177, -0.259033, -7.263186, -41.870117, -31.799324
1575199, 0.413086, 0.873169, -0.258789, -6.774904, -50.109879, -24.169930
1575219, 0.355957, 0.839844, -0.365479, -18.615723, -44.738785, -15.319828
1575239, 0.267212, 0.870361, -0.255615, -24.780281, -44.860855, 1.831055
1575259, 0.158936, 0.905396, -0.239136, -15.930180, -44.067383, 20.874023
1575279, 0.172241, 0.887695, -0.331299, -14.038090, -25.207527, 34.912109
1575299, 0.261963, 0.876587, -0.407349, -20.019531, -6.530764, 40.405273
1575319, 0.347046, 0.909302, -0.361084, -17.578125, -17.089844, 37.231445
1575339, 0.333130, 0.879883, -0.491455, -23.254402, -21.301270, 27.587898
1575359, 0.285767, 0.907715, -0.445557, -27.648933, -23.132332, 14.282230
1575379, 0.240234, 0.867920, -0.474121, -30.151375, -18.432617, 10.559082
1575399, 0.224487, 0.880737, -0.444702, -26.367195, -17.395020, 9.704590
1575419, 0.181030, 0.864014, -0.515015, -23.803719, -9.094238, 8.850098
1575439, 0.212891, 0.863525, -0.538452, -23.559578, -1.586915, 7.019045
1575459, 0.200195, 0.845581, -0.577881, -20.263672, 3.906251, 4.699707
1575479, 0.177856, 0.814087, -0.611938, -23.437508, 11.840824, 8.361816
1575499, 0.224976, 0.831177, -0.603516, -29.357918, 22.521980, 12.695316
1575519, 0.327393, 0.846313, -0.576416, -34.423828, 27.221687, 10.864258
1575539, 0.483398, 0.852051, -0.469238, -29.907234, 20.019531, -13.610844
1575559, 0.410400, 0.863770, -0.484131, -22.644051, 21.118164, -25.634773
1575579, 0.426147, 0.878174, -0.377563, -14.404301, 18.493652, -28.076180
1575599, 0.386230, 0.865601, -0.360474, -3.906251, 22.521980, -33.081055
1575619, 0.408569, 0.855957, -0.323608, -1.342773, 27.954109, -27.465828
1575639, 0.487793, 0.864868, -0.225342, 6.713869, 24.475105, -29.235847
1575659, 0.486572, 0.846924, -0.242554, 11.108402, 26.489265, -30.944832
1575679, 0.520996, 0.830444, -0.223022, 4.150391, 27.771004, -25.512703
1575699, 0.562378, 0.851074, -0.059326, 7.141115, 13.061527, -20.568848
1575719, 0.566040, 0.874512, -0.098389, 6.896975, -0.122070, -17.883301
1575739, 0.654175, 0.892944, -0.074341, 0.671387, -27.404793, -20.507813
1575759, 0.682495, 0.932373, -0.035400, 3.112794, -60.913101, -25.451668
1575779, 0.556641, 0.938599, -0.008789, 13.244633, -100.341827, -23.925789
1575799, 0.286011, 0.921143, -0.027344, 19.042969, -99.487335, -13.305668
1575819, 0.094116, 0.879395, -0.077515, 20.629883, -64.392090, 0.610352
1575839, 0.181030, 0.954224, -0.178955, 16.845703, -25.268562, 14.221195
1575859, 0.300171, 0.936646, -0.258057, 12.756351, -21.423340, 15.380863
1575879, 0.280396, 0.897705, -0.304810, 1.770020, -23.925789, 26.550301
1575899, 0.271973, 0.895752, -0.313354, -10.437012, -27.526863, 35.583496
1575919, 0.211304, 0.947266, -0.263306, -16.357422, -6.713869, 37.597656
1575939, 0.308105, 0.918579, -0.319702, -10.742188, -6.530764, 30.578621
1575959, 0.331421, 0.920288, -0.394409, -10.559082, -18.310547, 18.676758
1575979, 0.245972, 0.925171, -0.407837, -11.047363, -31.372078, 12.268070
1575999, 0.167114, 0.954102, -0.387817, -8.789063, -34.851074, 6.958010
1576019, 0.102539, 0.956665, -0.399292, -3.723145, -27.709969, 3.845216
1576039, 0.075928, 0.950928, -0.442383, -2.868653, -19.653320, 0.122070
1576059, 0.017578, 0.936035, -0.409302, -1.342773, -10.253906, 1.586915
1576079, -0.014648, 0.954346, -0.373535, 1.525879, 2.807618, 7.385256
1576099, -0.013794, 0.951782, -0.367554, 4.394531, 22.949226, 19.958496
1576119, 0.084961, 0.975586, -0.293091, 12.695316, 35.034180, 25.573738
1576139, 0.102173, 0.967163, -0.260986, 24.536140, 35.461426, 25.695808
1576159, 0.169800, 0.999023, -0.276245, 27.893074, 45.837418, 20.874023
1576179, 0.192749, 0.994385, -0.229614, 33.691406, 49.743668, 10.559082
1576199, 0.291138, 0.968750, -0.223999, 39.672852, 49.499527, 2.807618
1576219, 0.423340, 0.926025, -0.288330, 37.048340, 42.175293, -7.385256
1576239, 0.393188, 0.872803, -0.279053, 33.386230, 34.057617, -18.615723
1576259, 0.345825, 0.865356, -0.280762, 21.789551, 36.621094, -5.065918
1576279, 0.463379, 0.856201, -0.208984, 16.052246, 38.330078, 7.568361
1576299, 0.527954, 0.793091, -0.236206, 3.295899, 41.381836, 22.827156
1576319, 0.608765, 0.828369, -0.167236, 0.427246, 29.846199, 32.226563
1576339, 0.740723, 0.873901, -0.168701, 7.812502, 5.126953, 23.132332
1576359, 0.720581, 0.865112, -0.247437, 17.883301, -13.549809, -1.770020
1576379, 0.589111, 0.844971, -0.340942, 19.775391, -26.306160, -19.836426
1576399, 0.413452, 0.831421, -0.422729, 16.296387, -30.944832, -26.794441
1576419, 0.295654, 0.830322, -0.470581, 7.385256, -27.099617, -22.949226
1576439, 0.237183, 0.841675, -0.449707, -0.671387, -15.380863, -15.747074
1576459, 0.214600, 0.855469, -0.412109, -5.737307, -0.915528, -6.225588
1576479, 0.260010, 0.859009, -0.393799, -8.544922, 12.878422, 6.042482
1576499, 0.337280, 0.877808, -0.308472, -8.117676, 12.390141, 10.864258
1576519, 0.376099, 0.877319, -0.295898, -3.723145, 8.361816, 13.244633
1576539, 0.400513, 0.873657, -0.296875, 0.732422, 4.821777, 13.793949
1576559, 0.456055, 0.858521, -0.339355, 2.990724, 0.854492, 10.681152
1576579, 0.439575, 0.860474, -0.345703, 2.746582, -2.807618, 6.408693
1576599, 0.422974, 0.858398, -0.340942, 3.662110, -3.662110, 3.784181
1576619, 0.407104, 0.856445, -0.347900, 3.967286, -2.685547, 1.831055
1576639, 0.405151, 0.855225, -0.349854, 4.211426, -2.563477, 1.220703
1576659, 0.413940, 0.851807, -0.364746, 3.906251, -3.479005, 0.305176
1576679, 0.384033, 0.855347, -0.354858, 3.112794, -7.934572, 0.122070
1576699, 0.353027, 0.853882, -0.368652, 2.929688, -6.042482, 2.380371
1576719, 0.368408, 0.852295, -0.364380, 2.136230, -1.708985, 4.699707
1576739, 0.392090, 0.852417, -0.356812, 2.563477, 0.488281, 5.065918
1576759, 0.435913, 0.865234, -0.374512, 1.403809, -1.037598, 2.624512
1576779, 0.459839, 0.853149, -0.368042, -0.305176, -4.882813, -3.906251
1576799, 0.401367, 0.850220, -0.345825, 0.183106, -9.033203, -5.920412
1576819, 0.366089, 0.853516, -0.352661, 1.892090, -6.958010, -3.784181
1576839, 0.362915, 0.841797, -0.362183, 2.563477, -2.075195, -0.732422
1576859, 0.372803, 0.847656, -0.371582, 2.685547, -0.488281, 2.807618
1576879, 0.394287, 0.847656, -0.379272, 1.403809, 0.488281, 2.441406
1576899, 0.387817, 0.848022, -0.385742, 0.122070, 1.586915, 2.746582
1576919, 0.390625, 0.850464, -0.375366, -1.098633, 2.990724, 2.685547
1576939, 0.402588, 0.853149, -0.361816, -0.915528, 3.051759, 3.173829
1576959, 0.421997, 0.838135, -0.368896, -1.342773, 1.342773, 1.708985
