timestamp,ax,ay,az,gx,gy,gz
837342, 0.294067, 0.927979, -0.228516, 5.676271, -0.488281, 4.577637
837362, 0.350586, 0.905396, -0.303467, -0.793457, 2.075195, 2.502441
837382, 0.349854, 0.909424, -0.247192, -3.479005, -4.028320, 2.197266
837402, 0.357666, 0.923950, -0.207153, -0.610352, -8.728027, 2.685547
837422, 0.320068, 0.915649, -0.252930, 0.427246, -5.004883, -0.061035
837442, 0.313721, 0.917847, -0.247070, -1.281738, -5.615236, 1.770020
837462, 0.305908, 0.918945, -0.232178, -1.586915, -3.906251, 2.868653
837482, 0.311279, 0.921265, -0.227661, -1.159668, -2.929688, 5.249023
837502, 0.330078, 0.920532, -0.224487, -0.549316, 0.671387, 5.310059
837522, 0.358032, 0.917847, -0.228760, 0.183106, 1.037598, 4.272461
837542, 0.368530, 0.918945, -0.228271, 0.305176, -1.647950, 2.258301
837562, 0.355713, 0.918701, -0.220459, 1.159668, -1.525879, -0.122070
837582, 0.338623, 0.919800, -0.224121, 2.014160, -1.464844, -0.488281
837602, 0.352783, 0.911499, -0.252686, 1.831055, -2.563477, -1.708985
837622, 0.336304, 0.911377, -0.260742, -0.366211, -2.624512, -2.319336
837642, 0.332275, 0.916382, -0.240234, -1.647950, -2.014160, -2.136230
837662, 0.325562, 0.920654, -0.220947, -1.159668, -1.159668, -1.953125
837682, 0.314209, 0.923584, -0.219971, 0.183106, 0.122070, -0.854492
837702, 0.327637, 0.920288, -0.223755, 1.403809, 0.732422, 0.488281
837722, 0.354492, 0.916992, -0.239258, 1.403809, -0.122070, -0.244141
837742, 0.344482, 0.915649, -0.244019, 0.671387, -1.708985, -1.403809
837762, 0.323608, 0.919312, -0.232544, 0.244141, -2.197266, -1.037598
837782, 0.313599, 0.924683, -0.213867, 1.403809, -1.098633, -0.061035
837802, 0.332275, 0.919556, -0.229004, 3.845216, 0.427246, 1.708985
837822, 0.344116, 0.915527, -0.244629, 3.601075, 0.183106, 1.159668
837842, 0.332764, 0.916138, -0.243408, 2.929688, -1.037598, 1.159668
837862, 0.324951, 0.920288, -0.227539, 3.356935, -0.366211, 1.831055
837882, 0.328491, 0.919434, -0.223633, 4.638672, 1.831055, 2.258301
837902, 0.348877, 0.917358, -0.236206, 5.737307, 2.258301, 2.197266
837922, 0.349976, 0.909302, -0.261475, 5.004883, 1.464844, 1.220703
837942, 0.336914, 0.910156, -0.258911, 3.356935, 0.305176, 1.159668
837962, 0.325806, 0.912842, -0.262329, 1.586915, 2.563477, 1.098633
837982, 0.342041, 0.912354, -0.240479, 0.366211, 3.234864, 2.197266
838002, 0.334595, 0.912354, -0.240967, 0.854492, 2.563477, 2.563477
838022, 0.336792, 0.912109, -0.241333, 0.915528, 0.671387, 4.211426
838042, 0.351685, 0.912842, -0.231323, 1.892090, 1.037598, 4.333496
838062, 0.357422, 0.911743, -0.234131, 3.173829, 0.366211, 3.540040
838082, 0.338379, 0.910156, -0.258911, 2.563477, 3.601075, 2.441406
838102, 0.323730, 0.902222, -0.278198, -0.427246, 7.019045, 3.295899
838122, 0.331421, 0.904053, -0.252808, -1.953125, 7.141115, 5.920412
838142, 0.358276, 0.910278, -0.226807, -1.159668, 4.150391, 7.507326
838162, 0.376709, 0.911621, -0.228394, -0.061035, 5.126953, 6.103518
838182, 0.407715, 0.903564, -0.237671, 0.488281, 2.624512, 2.746582
838202, 0.408447, 0.902344, -0.243652, 0.854492, -2.075195, -0.122070
838222, 0.380493, 0.899414, -0.259644, -0.305176, -5.737307, -1.770020
838242, 0.372681, 0.900391, -0.260742, -2.075195, -6.042482, -2.746582
838262, 0.364014, 0.903320, -0.253540, -3.540040, -5.371094, -3.662110
838282, 0.356323, 0.906738, -0.244019, -4.211426, -4.089355, -3.845216
838302, 0.373291, 0.906372, -0.245972, -4.699707, -3.356935, -4.455566
838322, 0.393555, 0.906982, -0.242554, -5.432129, -6.103518, -6.530764
838342, 0.374878, 0.912354, -0.234009, -5.798342, -7.568361, -8.972168
838362, 0.328369, 0.912964, -0.235962, -5.065918, -4.821777, -10.620117
838382, 0.340088, 0.915405, -0.231812, -5.432129, -4.333496, -9.399414
838402, 0.343750, 0.918457, -0.224243, -5.126953, -5.187988, -9.643555
838422, 0.329834, 0.919678, -0.220337, -4.516602, -4.150391, -10.009766
838442, 0.312134, 0.923584, -0.216553, -3.540040, -1.770020, -9.460449
838462, 0.306152, 0.925537, -0.218506, -2.685547, -0.488281, -7.690432
838482, 0.307373, 0.923828, -0.222900, -2.136230, -0.244141, -6.164553
838502, 0.302368, 0.924072, -0.224609, -2.319336, -0.854492, -4.089355
838522, 0.299805, 0.927246, -0.219971, -2.014160, -0.976563, -2.197266
838542, 0.302856, 0.927002, -0.214600, -1.586915, 0.122070, -0.549316
838562, 0.322754, 0.928223, -0.208252, 0.061035, 1.464844, 0.183106
838582, 0.335693, 0.928955, -0.207520, 1.159668, 1.098633, -0.183106
838602, 0.334595, 0.926636, -0.212524, 2.258301, -0.610352, -0.976563
838622, 0.324341, 0.924805, -0.222290, 2.624512, -0.671387, -1.281738
838642, 0.320435, 0.923950, -0.229614, 2.441406, 0.488281, -1.403809
838662, 0.332642, 0.918701, -0.244385, 1.281738, -0.061035, -1.464844
838682, 0.335938, 0.919312, -0.251587, -1.037598, -1.770020, -2.380371
838702, 0.347290, 0.922363, -0.230957, -2.319336, -3.234864, -3.723145
838722, 0.336060, 0.920044, -0.245728, -3.417970, -4.638672, -5.432129
838742, 0.331909, 0.920532, -0.251953, -7.568361, -4.394531, -7.019045
838762, 0.315430, 0.922974, -0.239136, -9.765625, -3.356935, -7.690432
838782, 0.326416, 0.923096, -0.241699, -11.474613, -3.112794, -8.728027
838802, 0.315186, 0.920288, -0.261108, -14.953617, -2.197266, -9.826660
838822, 0.301758, 0.919312, -0.260864, -19.348145, -0.976563, -10.070801
838842, 0.265869, 0.932739, -0.211792, -17.944336, -0.061035, -7.995607
838862, 0.283325, 0.961426, -0.164917, -11.413578, -5.065918, -2.258301
838882, 0.197876, 0.990112, -0.088867, 7.507326, -10.681152, -2.197266
838902, 0.151733, 0.966431, -0.193359, 17.272949, -0.061035, 2.075195
838922, 0.157959, 0.950317, -0.255737, 17.089844, 19.165039, 2.868653
838942, 0.127686, 0.948364, -0.257202, 14.648441, 27.038582, 10.070801
838962, 0.132690, 0.949463, -0.218628, 12.084965, 38.085938, 16.113281
838982, 0.146362, 0.998413, -0.162964, 11.169437, 46.447769, 15.869144
839002, 0.221802, 1.021362, -0.125122, 17.517090, 52.978531, 7.263186
839022, 0.272583, 0.992065, -0.142578, 19.348145, 63.415543, -5.065918
839042, 0.352661, 0.942261, -0.105347, 17.761230, 59.143082, -8.850098
839062, 0.398560, 0.923584, -0.099243, 12.817387, 50.354019, -8.850098
839082, 0.390503, 0.952026, -0.086182, 6.713869, 46.691910, -10.864258
839102, 0.403809, 0.940674, -0.054321, 4.638672, 44.860855, -16.662598
839122, 0.542236, 0.919800, 0.047485, 8.728027, 22.888191, -10.498047
839142, 0.616333, 0.914917, 0.030273, 17.517090, -5.615236, -10.681152
839162, 0.629761, 0.873779, -0.122192, 14.648441, -26.489265, -19.409180
839182, 0.557983, 0.881714, -0.132324, 5.615236, -44.982925, -23.315437
839202, 0.453369, 0.886841, -0.140503, -3.479005, -54.382339, -20.629883
839222, 0.365845, 0.876343, -0.158569, -13.000492, -58.959976, -9.765625
839242, 0.297729, 0.907959, -0.134644, -19.958496, -61.157242, 4.028320
839262, 0.185547, 0.972168, -0.114136, -16.784668, -68.237305, 20.080566
839282, 0.232300, 0.956299, -0.177856, -11.718754, -50.048843, 18.188477
839302, 0.130127, 0.960205, -0.232544, -13.427738, -39.489746, 21.667480
839322, 0.209717, 0.966431, -0.240723, -14.709476, -31.005867, 20.568848
839342, 0.148804, 0.951050, -0.317017, -18.859863, -29.235847, 22.705086
839362, 0.192017, 0.966675, -0.246826, -16.418457, -30.273445, 21.057129
839382, 0.103516, 0.962280, -0.288452, -12.817387, -17.578125, 16.845703
839402, 0.171265, 0.961792, -0.283813, -12.512211, -17.395020, 23.315437
839422, 0.174927, 0.950562, -0.297852, -10.131836, -13.061527, 20.446777
839442, 0.219360, 0.933716, -0.345093, -13.854984, -6.286623, 20.385742
839462, 0.275269, 0.911987, -0.358276, -19.714355, -4.882813, 17.578125
839482, 0.226074, 0.925781, -0.320801, -24.108894, 2.319336, 17.700195
839502, 0.252441, 0.933594, -0.233887, -20.202637, 11.413578, 26.428230
839522, 0.328369, 0.897217, -0.287231, -20.812988, 13.671879, 26.977547
839542, 0.390137, 0.871460, -0.314453, -25.024422, 13.610844, 27.709969
839562, 0.470093, 0.900391, -0.287720, -27.221687, 16.479492, 27.709969
839582, 0.486572, 0.919556, -0.253418, -22.033691, 24.536140, 6.774904
839602, 0.392822, 0.922974, -0.232300, -16.845703, 26.733406, 1.953125
839622, 0.521362, 0.944580, -0.205688, -3.967286, 21.423340, -9.460449
839642, 0.554565, 0.900146, -0.248291, 4.760742, 17.578125, -23.559578
839662, 0.536743, 0.887573, -0.219971, 11.230473, 8.544922, -32.775879
839682, 0.466187, 0.861816, -0.217407, 13.244633, 2.258301, -32.836914
839702, 0.431152, 0.856934, -0.168091, 9.582520, 5.249023, -25.512703
839722, 0.494507, 0.865479, -0.156738, 4.699707, 11.962894, -23.376472
839742, 0.548950, 0.869995, -0.125977, -0.549316, 10.070801, -25.451668
839762, 0.562866, 0.881104, -0.046875, -0.061035, 1.831055, -28.930672
839782, 0.514771, 0.873535, 0.000488, 3.906251, -6.591799, -26.733406
839802, 0.489868, 0.886597, -0.033813, 2.197266, -11.962894, -22.644051
839822, 0.460571, 0.899902, 0.002075, -2.685547, -20.080566, -16.479492
839842, 0.451294, 0.924683, 0.053833, -1.464844, -23.681648, -12.939457
839862, 0.454468, 0.926025, 0.067749, 5.554201, -26.733406, -8.361816
839882, 0.414429, 0.913452, -0.067627, 3.601075, -33.081055, -6.103518
839902, 0.336304, 0.922729, -0.130615, -5.798342, -37.353516, -3.845216
839922, 0.274658, 0.953369, -0.109863, -13.366703, -38.024902, -2.319336
839942, 0.211670, 0.963501, -0.082764, -14.770512, -33.691406, -1.159668
839962, 0.144531, 0.972412, -0.079712, -12.634281, -21.423340, 3.051759
839982, 0.091919, 0.970215, -0.089478, -12.146000, -8.117676, 13.977055
840002, 0.251465, 0.974609, -0.102051, -5.432129, -9.399414, 18.249512
840022, 0.215332, 0.978760, -0.173218, -6.958010, -3.295899, 16.906738
840042, 0.261230, 0.991211, -0.170410, -8.239746, -3.845216, 7.324221
840062, 0.238281, 0.992798, -0.165527, -8.422852, -5.126953, -4.394531
840082, 0.184448, 0.983521, -0.171143, -6.103518, -2.014160, -6.286623
840102, 0.149902, 0.962646, -0.168701, -5.981447, 3.234864, -3.784181
840122, 0.122070, 0.980469, -0.156860, -4.150391, 6.958010, 1.708985
840142, 0.133789, 0.988281, -0.136108, -2.197266, 18.188477, 6.774904
840162, 0.156494, 0.993896, -0.127319, 5.615236, 16.540527, 11.535648
840182, 0.189941, 0.979980, -0.156128, 8.605957, 20.385742, 13.366703
840202, 0.212402, 0.984375, -0.158691, 8.850098, 24.047859, 10.192871
840222, 0.209595, 0.994995, -0.096680, 13.916019, 21.240234, 8.422852
840242, 0.176025, 0.980103, -0.092773, 19.897461, 24.780281, 8.666992
840262, 0.171631, 0.966919, -0.091309, 18.188477, 37.231445, 12.512211
840282, 0.185059, 0.981934, -0.045166, 17.944336, 40.222168, 15.808109
840302, 0.172485, 0.994507, 0.003296, 21.606445, 48.461929, 20.446777
840322, 0.251465, 0.981201, -0.009399, 24.719246, 57.006851, 20.446777
840342, 0.374268, 0.966431, 0.003296, 27.954109, 50.781265, 15.563969
