timestamp,ax,ay,az,gx,gy,gz
1463533, 0.280884, 0.896118, -0.364380, 1.831055, -2.441406, -1.098633
1463553, 0.303101, 0.894653, -0.373413, 1.708985, -3.051759, -1.647950
1463573, 0.269531, 0.889404, -0.376465, 0.915528, -1.831055, -1.037598
1463593, 0.272705, 0.890625, -0.367920, 1.098633, -0.549316, -0.122070
1463613, 0.288086, 0.892944, -0.379761, 0.549316, -0.732422, 0.183106
1463633, 0.284180, 0.892578, -0.370239, 0.549316, -0.488281, 0.305176
1463653, 0.293457, 0.890869, -0.376221, 0.183106, -1.037598, 0.122070
1463673, 0.299316, 0.893433, -0.362061, 0.549316, -1.708985, -0.793457
1463693, 0.289185, 0.892090, -0.372192, 0.854492, -3.234864, -1.281738
1463713, 0.274780, 0.895386, -0.361572, 1.281738, -4.211426, -0.732422
1463733, 0.267456, 0.892456, -0.373535, 1.831055, -2.929688, 0.305176
1463753, 0.267578, 0.892090, -0.379028, 1.281738, -0.915528, 1.953125
1463773, 0.266113, 0.890137, -0.382202, 0.122070, 0.122070, 3.784181
1463793, 0.276245, 0.891357, -0.370361, 0.305176, 1.281738, 4.821777
1463813, 0.279785, 0.889404, -0.373169, 0.244141, 1.647950, 5.249023
1463833, 0.277344, 0.890015, -0.371704, 0.366211, -0.549316, 6.774904
1463853, 0.285278, 0.886597, -0.382202, 0.000000, -0.610352, 7.995607
1463873, 0.285522, 0.885132, -0.384888, -0.915528, 1.037598, 8.422852
1463893, 0.295288, 0.887817, -0.369873, -1.281738, 2.624512, 8.850098
1463913, 0.313965, 0.883301, -0.380615, -1.586915, 2.197266, 8.605957
1463933, 0.333862, 0.882080, -0.380371, -2.502441, 0.183106, 7.141115
1463953, 0.329346, 0.883789, -0.371460, -2.990724, -5.310059, 4.821777
1463973, 0.325195, 0.885010, -0.367920, -3.295899, -6.774904, 4.028320
1463993, 0.313721, 0.889038, -0.354492, -2.807618, -7.141115, 3.051759
1464013, 0.296753, 0.892822, -0.347656, -1.220703, -7.080080, 3.601075
1464033, 0.289917, 0.889648, -0.355835, 0.244141, -7.019045, 5.187988
1464053, 0.294434, 0.885620, -0.366821, 0.915528, -7.141115, 6.958010
1464073, 0.297729, 0.881958, -0.373047, 0.488281, -9.094238, 8.544922
1464093, 0.276123, 0.882446, -0.365112, 0.976563, -10.192871, 11.718754
1464113, 0.296265, 0.880371, -0.378174, 0.915528, -12.939457, 15.075687
1464133, 0.304932, 0.887573, -0.330322, 3.601075, 9.460449, 11.657719
1464153, 0.338623, 0.871338, -0.392700, 3.295899, 1.831055, 12.878422
1464173, 0.322021, 0.877075, -0.366455, 2.990724, 4.699707, 11.352543
1464193, 0.297607, 0.881714, -0.354126, 4.577637, 10.131836, 13.732914
1464213, 0.330322, 0.885376, -0.331909, 7.385256, 16.601563, 14.404301
1464233, 0.344116, 0.884766, -0.307861, 12.207035, 19.836426, 15.136723
1464253, 0.380371, 0.896484, -0.306396, 18.798828, 18.249512, 15.075687
1464273, 0.393188, 0.878052, -0.349731, 23.254402, 17.761230, 13.854984
1464293, 0.414673, 0.884399, -0.383179, 24.108894, 13.977055, 12.634281
1464313, 0.476318, 0.889038, -0.429810, 18.432617, 13.244633, 10.192871
1464333, 0.554321, 0.807251, -0.406494, 15.319828, -14.892582, 5.920412
1464353, 0.532104, 0.747925, -0.525513, 6.042482, -33.813477, -9.521484
1464373, 0.455444, 0.722778, -0.511108, -8.605957, -38.452148, -24.108894
1464393, 0.310913, 0.710938, -0.441284, -16.723633, -34.973145, -30.883797
1464413, 0.274048, 0.762939, -0.445557, -20.935059, -25.939949, -25.268562
1464433, 0.268677, 0.897339, -0.463135, -21.240234, -14.831547, -19.775391
1464453, 0.356689, 0.930786, -0.438965, -15.930180, -20.202637, -18.554688
1464473, 0.346802, 0.847168, -0.468506, -20.751953, -20.507813, -21.301270
1464493, 0.293823, 0.879028, -0.407471, -24.963387, -29.602058, -18.920898
1464513, 0.213501, 0.896729, -0.374268, -21.423340, -24.108894, -16.052246
1464533, 0.251465, 0.901855, -0.337524, -19.287109, -11.535648, -11.474613
1464553, 0.232666, 0.897095, -0.359253, -11.840824, -20.629883, -7.507326
1464573, 0.206787, 0.887085, -0.397339, -9.582520, -11.779789, -2.075195
1464593, 0.229980, 0.891846, -0.386963, -8.239746, -0.854492, -1.159668
1464613, 0.249878, 0.894043, -0.377197, -4.455566, 7.690432, -2.197266
1464633, 0.219360, 0.891846, -0.388062, 1.586915, 11.413578, -1.647950
1464653, 0.184326, 0.885010, -0.448975, 2.563477, 17.333984, -0.183106
1464673, 0.122803, 0.898071, -0.387817, 5.676271, 25.207527, 4.516602
1464693, 0.131470, 0.903076, -0.425293, 7.385256, 36.376953, 7.385256
1464713, 0.189331, 0.921631, -0.351318, 10.009766, 43.762207, 8.178711
1464733, 0.225342, 0.938599, -0.328125, 16.357422, 45.104996, 5.554201
1464753, 0.251953, 0.943970, -0.328125, 18.554688, 46.264664, -1.281738
1464773, 0.197876, 0.957520, -0.285767, 23.681648, 49.926773, -6.408693
1464793, 0.211548, 0.966187, -0.285278, 29.846199, 52.856461, -11.962894
1464813, 0.201416, 0.945679, -0.290771, 31.433113, 61.035172, -15.441898
1464833, 0.307007, 0.917603, -0.313354, 22.094727, 64.025879, -12.634281
1464853, 0.370972, 0.930908, -0.243042, 13.793949, 62.377945, -14.892582
1464873, 0.408936, 0.961670, -0.186401, 13.977055, 59.570328, -20.507813
1464893, 0.503662, 0.895874, -0.196045, 10.620117, 49.133316, -21.423340
1464913, 0.590332, 0.897583, -0.169556, 11.718754, 27.832039, -24.536140
1464933, 0.624023, 0.894043, -0.227173, 11.047363, 9.155273, -33.691406
1464953, 0.629761, 0.866943, -0.265869, 4.638672, -8.789063, -42.419434
1464973, 0.588135, 0.853149, -0.269165, 0.061035, -32.531738, -46.630875
1464993, 0.405884, 0.841064, -0.324341, -4.577637, -47.180191, -42.053223
1465013, 0.249390, 0.845703, -0.356689, -14.465336, -39.489746, -24.597176
1465033, 0.227661, 0.895996, -0.265991, -15.991215, -32.775879, -4.150391
1465053, 0.203247, 0.907959, -0.260742, -10.620117, -31.555183, 11.657719
1465073, 0.238159, 0.911133, -0.299927, -7.202150, -33.630371, 21.057129
1465093, 0.192627, 0.898438, -0.384277, -10.681152, -34.240723, 19.348145
1465113, 0.244507, 0.946899, -0.329712, -10.009766, -41.870117, 22.583015
1465133, 0.168213, 0.900879, -0.437988, -10.559082, -38.269043, 14.648441
1465153, 0.091675, 0.923950, -0.388184, -17.150879, -27.343758, 19.836426
1465173, 0.129395, 0.926514, -0.381958, -13.916019, -25.573738, 20.996094
1465193, 0.129272, 0.912354, -0.435669, -17.395020, -17.211914, 18.066406
1465213, 0.168091, 0.926270, -0.380005, -15.625004, 0.854492, 7.629396
1465233, 0.023682, 0.924927, -0.429810, -13.793949, -5.249023, 16.357422
1465253, 0.229248, 0.908691, -0.437378, -13.305668, -5.126953, 12.878422
1465273, 0.092773, 0.895508, -0.421387, -16.418457, 2.990724, 16.235352
1465293, 0.174438, 0.889160, -0.462280, -15.625004, 5.615236, 20.080566
1465313, 0.190308, 0.884521, -0.476807, -19.042969, 15.014652, 19.348145
1465333, 0.243408, 0.893799, -0.471924, -23.315437, 20.080566, 15.625004
1465353, 0.284546, 0.893311, -0.425293, -23.498543, 18.981934, 9.094238
1465373, 0.292603, 0.896851, -0.418091, -20.568848, 22.827156, 1.403809
1465393, 0.319702, 0.894897, -0.418335, -16.113281, 21.484375, -7.568361
1465413, 0.306519, 0.876099, -0.426270, -13.244633, 23.681648, -12.756351
1465433, 0.324341, 0.883179, -0.402588, -11.108402, 28.320320, -14.953617
1465453, 0.406006, 0.882446, -0.403687, -7.568361, 27.526863, -22.033691
1465473, 0.446655, 0.861694, -0.393677, -8.178711, 19.287109, -31.677254
1465493, 0.390381, 0.871460, -0.353516, -8.361816, 15.014652, -33.081055
1465513, 0.338013, 0.865356, -0.323242, -7.202150, 13.427738, -29.663094
1465533, 0.342529, 0.888428, -0.304077, -8.422852, 17.517090, -23.925789
1465553, 0.382080, 0.906494, -0.216064, -6.347658, 17.578125, -18.981934
1465573, 0.411865, 0.893921, -0.177490, -3.967286, 15.441898, -13.305668
1465593, 0.458130, 0.899780, -0.129883, -0.732422, 11.352543, -7.385256
1465613, 0.487793, 0.911865, -0.165894, -2.990724, 4.333496, -5.126953
1465633, 0.521729, 0.911865, -0.146240, -10.498047, -4.150391, -8.483887
1465653, 0.469360, 0.941284, -0.042969, -9.582520, -20.874023, -9.582520
1465673, 0.394897, 0.952026, -0.042358, -5.859377, -26.367195, -8.972168
1465693, 0.272217, 0.941162, -0.046631, -0.183106, -23.376472, 0.122070
1465713, 0.267090, 0.943481, -0.057739, 3.051759, -16.479492, 14.892582
1465733, 0.335205, 0.957642, -0.108398, 5.676271, -16.906738, 19.165039
1465753, 0.373169, 0.975586, -0.117065, 7.080080, -22.949226, 14.831547
1465773, 0.406738, 0.958984, -0.189209, 4.394531, -36.071777, 1.525879
1465793, 0.293823, 0.964111, -0.192017, -0.976563, -45.837418, -7.751467
1465813, 0.187622, 0.968262, -0.181030, -3.295899, -47.119156, -4.211426
1465833, 0.102051, 0.953125, -0.208496, -2.929688, -38.085938, 0.976563
1465853, 0.069580, 0.959717, -0.277344, -1.892090, -26.672371, 12.573246
1465873, 0.069458, 0.973877, -0.299438, -2.441406, -7.202150, 19.531250
1465893, 0.152954, 0.966309, -0.369263, 1.708985, -22.094727, 12.390141
1465913, 0.075439, 0.951538, -0.396240, -2.746582, -16.418457, 5.676271
1465933, 0.078491, 0.945313, -0.392700, -2.807618, -15.441898, 1.098633
1465953, -0.000122, 0.951050, -0.360962, -2.136230, -17.272949, 8.483887
1465973, -0.079834, 0.959717, -0.329468, -3.356935, 6.591799, 16.479492
1466013, -0.025269, 1.001709, -0.137573, 6.652834, 53.894058, 39.611816
1466033, 0.252808, 0.984741, -0.174927, 18.798828, 61.035172, 39.001465
1466053, 0.372192, 0.999512, -0.145996, 24.475105, 46.630875, 23.437508
1466073, 0.372681, 0.998657, -0.094238, 34.484863, 22.338875, 5.798342
1466093, 0.318604, 0.968872, -0.102905, 43.212891, 12.817387, -1.770020
1466113, 0.257568, 0.893677, -0.195801, 40.832520, 18.615723, 4.516602
1466133, 0.298950, 0.848389, -0.233521, 24.292000, 26.000984, 23.864754
1466153, 0.402954, 0.864136, -0.186768, 13.366703, 25.268562, 40.771484
1466173, 0.540894, 0.863159, -0.205200, 12.023930, 28.747566, 42.480469
1466193, 0.711304, 0.886597, -0.213257, 14.892582, 16.235352, 25.878914
1466213, 0.744873, 0.871826, -0.272705, 17.883301, -5.004883, 0.427246
1466233, 0.563599, 0.865601, -0.314453, 15.014652, -30.944832, -29.846199
1466253, 0.425415, 0.872314, -0.323364, 13.366703, -39.489746, -37.292480
1466273, 0.313965, 0.871460, -0.359375, 10.192871, -44.860855, -36.804199
1466293, 0.223877, 0.882568, -0.363281, 5.981447, -40.588379, -31.250008
1466313, 0.171143, 0.889648, -0.364746, 3.356935, -28.930672, -22.583015
1466333, 0.192871, 0.883667, -0.399170, -0.976563, -13.671879, -15.014652
1466353, 0.195923, 0.900024, -0.349365, -4.638672, -2.075195, -8.544922
1466373, 0.217285, 0.913086, -0.301514, -2.929688, 2.197266, -1.464844
1466393, 0.249512, 0.913452, -0.291382, 0.061035, 5.065918, 3.540040
1466413, 0.337646, 0.909180, -0.296753, 5.615236, 0.671387, 4.760742
1466433, 0.322876, 0.906128, -0.308350, 7.812502, -4.638672, 3.417970
1466453, 0.281372, 0.901978, -0.322632, 10.009766, -3.845216, 3.967286
1466473, 0.283936, 0.889648, -0.367676, 9.033203, 0.671387, 5.432129
1466493, 0.313843, 0.883911, -0.381470, 6.225588, 2.807618, 5.859377
1466513, 0.338013, 0.887207, -0.360229, 3.723145, 1.220703, 4.943848
1466533, 0.353516, 0.888794, -0.354736, 3.051759, -2.685547, 2.807618
1466553, 0.359619, 0.886353, -0.370239, -0.976563, -6.408693, 0.366211
1466573, 0.312500, 0.903564, -0.304077, 2.807618, -10.437012, -1.220703
