timestamp,ax,ay,az,gx,gy,gz
1825210, 0.419189, 0.429565, -0.664063, 36.254883, -13.366703, 47.851578
1825230, 0.668213, 0.412598, -0.730713, 19.287109, 39.855957, 36.376953
1825250, 0.692505, 0.436890, -0.658203, 12.268070, 26.855476, 26.672371
1825270, 0.693970, 0.402100, -0.595703, 11.291508, 19.897461, 19.104004
1825290, 0.720215, 0.365601, -0.604980, 10.070801, 14.587406, 1.647950
1825310, 0.668701, 0.328857, -0.635254, 7.263186, 0.732422, -13.305668
1825330, 0.627930, 0.389160, -0.624146, -6.103518, 4.516602, -23.559578
1825350, 0.674927, 0.469727, -0.611206, -9.582520, 5.432129, -18.249512
1825370, 0.724854, 0.510132, -0.626221, -8.789063, 3.173829, -9.826660
1825390, 0.677856, 0.485596, -0.599609, -4.943848, -3.479005, -5.004883
1825410, 0.633545, 0.407959, -0.609497, -3.601075, -2.319336, -2.929688
1825430, 0.645752, 0.387207, -0.660522, -8.422852, -4.821777, -5.859377
1825450, 0.663208, 0.442261, -0.675293, -11.047363, -14.526371, -12.084965
1825470, 0.614258, 0.465454, -0.671021, -5.493164, -21.057129, -15.197758
1825490, 0.589844, 0.476807, -0.708984, -1.098633, -21.057129, -14.099125
1825510, 0.523560, 0.501343, -0.749023, 0.366211, -13.671879, -8.605957
1825530, 0.559937, 0.480225, -0.712646, 2.319336, -10.375977, -1.647950
1825550, 0.543945, 0.427368, -0.715576, 1.953125, -6.835939, 0.854492
1825570, 0.567017, 0.437012, -0.717896, -2.441406, -2.868653, 1.281738
1825590, 0.651855, 0.518799, -0.690674, 6.713869, -5.371094, 1.159668
1825610, 0.596191, 0.402100, -0.705688, 14.343266, -29.174812, -11.413578
1825630, 0.492188, 0.344971, -0.789917, 9.643555, -41.931152, -23.437508
1825650, 0.356934, 0.374512, -0.815430, -7.995607, -25.573738, -21.667480
1825670, 0.430054, 0.477905, -0.683960, -15.502934, 1.159668, -8.850098
1825690, 0.545288, 0.458374, -0.587646, -14.465336, 27.282722, -0.610352
1825710, 0.744141, 0.534912, -0.536499, -11.413578, 37.353516, 1.403809
1825730, 0.808716, 0.524170, -0.554932, -2.258301, 4.882813, -6.591799
1825750, 0.550903, 0.479370, -0.649170, 1.342773, -9.277344, -11.779789
1825770, 0.543579, 0.447021, -0.727417, -5.004883, -9.094238, -10.375977
1825790, 0.472046, 0.485107, -0.764038, -10.620117, -8.972168, -8.483887
1825810, 0.514282, 0.527588, -0.776855, -10.681152, -0.549316, -3.540040
1825830, 0.551270, 0.545288, -0.727661, -4.516602, -1.892090, -3.784181
1825850, 0.525513, 0.488037, -0.699829, -0.610352, -0.793457, -3.723145
1825870, 0.527222, 0.460571, -0.674316, -4.089355, 4.455566, -2.685547
1825890, 0.565430, 0.486938, -0.659668, -6.713869, 9.216309, -2.197266
1825910, 0.617676, 0.525391, -0.636230, -3.417970, 7.873537, -2.258301
1825930, 0.610596, 0.506226, -0.644287, -1.770020, 1.037598, -2.380371
1825950, 0.585449, 0.498047, -0.648682, -2.868653, 0.000000, -2.136230
1825970, 0.558228, 0.497437, -0.661011, -3.295899, -0.915528, -2.929688
1825990, 0.555298, 0.508057, -0.679321, -3.479005, 0.610352, -3.845216
1826010, 0.560547, 0.509277, -0.670654, -2.136230, 0.671387, -5.249023
1826030, 0.550903, 0.480103, -0.685669, -2.258301, -1.708985, -7.690432
1826050, 0.507080, 0.460815, -0.690308, -5.676271, 1.647950, -9.521484
1826070, 0.494873, 0.463379, -0.683594, -8.789063, 10.864258, -13.244633
1826090, 0.539429, 0.542847, -0.684082, -7.751467, 17.944336, -18.310547
1826110, 0.547119, 0.577759, -0.668701, -3.540040, 20.324707, -14.953617
1826130, 0.546997, 0.588867, -0.649414, 1.525879, 24.902351, -9.948730
1826150, 0.586792, 0.556274, -0.623779, 5.920412, 24.597176, -11.169437
1826170, 0.622314, 0.499634, -0.596069, 7.934572, 23.193367, -13.854984
1826190, 0.616455, 0.475586, -0.601929, 4.882813, 18.493652, -18.249512
1826210, 0.593384, 0.482544, -0.603882, -2.929688, 16.540527, -19.348145
1826230, 0.586182, 0.503540, -0.598877, -7.751467, 17.028809, -20.202637
1826250, 0.581299, 0.540894, -0.623047, -13.366703, 13.427738, -18.676758
1826270, 0.589600, 0.632080, -0.612305, -13.793949, 10.437012, -14.099125
1826290, 0.619385, 0.672607, -0.594604, -1.525879, 0.915528, -10.314941
1826310, 0.597290, 0.587891, -0.601563, 2.136230, -8.239746, -11.108402
1826330, 0.554321, 0.543945, -0.600220, -2.868653, -8.728027, -12.329105
1826350, 0.548706, 0.595337, -0.604492, -6.713869, -13.427738, -18.798828
1826370, 0.499146, 0.647339, -0.568237, 2.014160, 2.197266, -6.958010
1826390, 0.601563, 0.553833, -0.583618, -0.549316, 2.441406, -5.187988
1826410, 0.646362, 0.560547, -0.526001, 0.976563, -10.192871, -1.831055
1826430, 0.605591, 0.583496, -0.608398, 4.516602, -22.644051, -4.882813
1826450, 0.631348, 0.582764, -0.678833, 1.342773, -37.353516, -5.676271
1826470, 0.505249, 0.549683, -0.673828, -9.826660, -54.809586, -1.342773
1826490, 0.487915, 0.567505, -0.596924, -13.366703, -47.607437, 7.202150
1826510, 0.447510, 0.570557, -0.586914, -10.437012, -27.526863, 13.977055
1826530, 0.437134, 0.532471, -0.588379, -8.666992, 8.300781, 25.817879
1826550, 0.565674, 0.568237, -0.635376, -8.850098, 13.000492, 30.822762
1826570, 0.516846, 0.607910, -0.632324, -8.300781, 11.108402, 27.221687
1826590, 0.503540, 0.583862, -0.645752, -6.225588, 17.517090, 27.160652
1826610, 0.533813, 0.620361, -0.635254, 2.075195, -12.390141, 21.972656
1826630, 0.546631, 0.552856, -0.756714, -1.647950, 7.263186, 7.263186
1826650, 0.461060, 0.556274, -0.613770, -1.159668, 12.878422, 10.498047
1826670, 0.436157, 0.576538, -0.587891, 9.582520, 35.156250, 23.803719
1826690, 0.564941, 0.548462, -0.653320, 5.187988, 62.438980, 15.441898
1826710, 0.549316, 0.578613, -0.594238, 6.652834, 73.974609, 14.831547
1826750, 0.662598, 0.597778, -0.631470, 8.483887, 86.181641, 13.183598
1826770, 0.765869, 0.561523, -0.525024, 9.582520, 59.021011, 6.652834
1826810, 0.697021, 0.566406, -0.571899, 20.812988, 26.123055, -8.789063
1826830, 0.706787, 0.583984, -0.532227, 23.986824, 8.361816, -14.343266
1826850, 0.656372, 0.585327, -0.565430, 28.320320, -6.774904, -26.550301
1826870, 0.591919, 0.547729, -0.554443, 22.338875, 3.479005, -24.658211
1826890, 0.671997, 0.610596, -0.542725, 18.432617, 1.647950, -22.644051
1826910, 0.657715, 0.556030, -0.544556, 12.695316, -1.464844, -23.376472
1826930, 0.671021, 0.561890, -0.513916, 8.422852, -2.319336, -20.507813
1826950, 0.724854, 0.572510, -0.520264, 5.004883, -14.343266, -21.118164
1826970, 0.680420, 0.536621, -0.517944, 0.061035, -24.475105, -18.676758
1826990, 0.701538, 0.505859, -0.504028, -2.685547, -27.343758, -13.549809
1827010, 0.703613, 0.520996, -0.552856, -4.089355, -45.410172, -11.047363
1827030, 0.651978, 0.540405, -0.597046, -10.009766, -52.063004, -8.666992
1827050, 0.601074, 0.553711, -0.599487, -22.033691, -56.152359, -2.319336
1827070, 0.578491, 0.562988, -0.592041, -28.808601, -56.213394, 2.685547
1827090, 0.539551, 0.576416, -0.610107, -32.226563, -46.142593, 6.408693
1827110, 0.523315, 0.585449, -0.591919, -31.066902, -39.306641, 6.469728
1827130, 0.496582, 0.599854, -0.637329, -30.944832, -26.672371, 6.652834
1827150, 0.485474, 0.588379, -0.665527, -34.362793, -16.723633, 7.751467
1827170, 0.475342, 0.613037, -0.657837, -39.794922, -3.784181, 7.568361
1827190, 0.475220, 0.675537, -0.509888, -38.208008, 32.409668, 0.915528
1827210, 0.564697, 0.604004, -0.641968, -27.587898, 25.756844, -5.981447
1827230, 0.583618, 0.646118, -0.552002, -24.169930, 40.771484, -18.188477
1827250, 0.599121, 0.632813, -0.529663, -15.930180, 31.860359, -25.939949
1827270, 0.592407, 0.617920, -0.489502, -8.178711, 18.127441, -27.832039
1827290, 0.556763, 0.653564, -0.531250, 0.427246, 13.427738, -30.212410
1827310, 0.533813, 0.630981, -0.569214, 0.854492, 10.498047, -31.188972
1827330, 0.504761, 0.618286, -0.540894, 3.112794, 11.779789, -29.296883
1827350, 0.516357, 0.618286, -0.567017, 7.263186, 16.540527, -25.207527
1827370, 0.523560, 0.626831, -0.552734, 7.873537, 16.662598, -21.545410
1827390, 0.588745, 0.648071, -0.503174, 17.822266, 4.943848, -23.925789
1827410, 0.559814, 0.613647, -0.484863, 29.479988, -8.789063, -25.634773
1827430, 0.569824, 0.629639, -0.438843, 45.288101, -30.090340, -18.005371
1827450, 0.537354, 0.614014, -0.602051, 41.137695, -26.855476, -13.977055
1827470, 0.558228, 0.641724, -0.510742, 34.973145, -38.452148, -7.324221
1827490, 0.511230, 0.636597, -0.516113, 40.771484, -41.381836, -5.126953
1827510, 0.460327, 0.651733, -0.624268, 39.550781, -33.142090, -1.708985
1827530, 0.523926, 0.611816, -0.696167, 25.695808, -33.874512, 2.563477
1827550, 0.480713, 0.610596, -0.610352, 18.798828, -41.442871, 9.399414
1827570, 0.411011, 0.613037, -0.678955, 13.366703, -31.127937, 19.226074
1827590, 0.414795, 0.577271, -0.723267, 2.258301, -22.705086, 24.963387
1827610, 0.472290, 0.658081, -0.636963, -3.295899, -8.544922, 32.836914
1827630, 0.466064, 0.639160, -0.673218, -2.502441, -4.272461, 25.817879
1827650, 0.418335, 0.593140, -0.684692, -2.563477, -2.746582, 22.888191
1827670, 0.478394, 0.585449, -0.686768, -5.371094, 2.197266, 28.076180
1827690, 0.490234, 0.523804, -0.662231, -6.103518, -4.272461, 30.761726
1827710, 0.434448, 0.531372, -0.566895, -2.197266, -11.291508, 45.349136
1827730, 0.415771, 0.624878, -0.652222, -0.793457, 20.202637, 50.170914
1827750, 0.535522, 0.663696, -0.684937, -3.906251, 44.494644, 33.203125
1827770, 0.510010, 0.625244, -0.658691, -2.685547, 49.621597, 23.254402
1827790, 0.581177, 0.661621, -0.690674, -1.464844, 31.127937, 7.324221
1827810, 0.512085, 0.600708, -0.595703, -0.305176, 22.460945, 3.662110
1827830, 0.567871, 0.583862, -0.587646, 2.136230, 27.160652, 5.065918
1827850, 0.642822, 0.602783, -0.612061, 4.821777, 22.766121, 3.540040
1827870, 0.645996, 0.659058, -0.657227, 6.835939, 16.418457, 3.967286
1827890, 0.638184, 0.722534, -0.683472, -7.263186, 15.930180, 3.967286
1827910, 0.512573, 0.924438, -0.346313, 33.569336, -12.451176, 49.743668
1827930, 0.775146, 0.597168, -0.581543, 61.645523, 22.216805, 57.922379
1827950, 0.742920, 0.334717, -0.624268, 36.743164, -26.794441, 38.757324
1827970, 0.606201, 0.298950, -0.600220, 15.808109, -47.973648, 20.690918
1827990, 0.518311, 0.399658, -0.695557, -6.042482, -43.029785, 9.277344
1828010, 0.492310, 0.466309, -0.698242, -8.422852, -27.893074, 7.629396
1828030, 0.511108, 0.465088, -0.704224, -6.774904, -16.662598, 8.728027
1828050, 0.530640, 0.455200, -0.708008, -10.192871, -12.634281, 9.094238
1828070, 0.514648, 0.441895, -0.691895, -13.305668, -3.784181, 10.803223
1828090, 0.604126, 0.446411, -0.657349, -13.061527, -0.366211, 8.300781
1828110, 0.591919, 0.465820, -0.644165, -11.413578, -2.807618, 3.112794
1828130, 0.598511, 0.478882, -0.648804, -8.666992, -1.037598, 2.319336
1828150, 0.594727, 0.467529, -0.644165, -7.019045, -0.793457, 1.953125
1828170, 0.579712, 0.478394, -0.636230, -6.164553, 2.807618, 0.183106
1828190, 0.585571, 0.462280, -0.653076, -6.408693, 2.990724, -9.887695
