timestamp,ax,ay,az,gx,gy,gz
1833430, 0.406250, 0.909912, -0.638916, 8.117676, 9.582520, 30.334480
1833450, 0.503784, 1.088501, -0.377808, 69.641113, 8.544922, 72.448730
1833470, 0.560669, 0.624023, -0.495972, 111.511261, 9.521484, 94.116241
1833490, 0.519775, 0.283447, -0.689941, 88.989288, 0.732422, 91.186554
1833510, 0.540161, 0.415405, -0.699585, 46.142593, 10.192871, 67.749023
1833530, 0.577637, 0.489868, -0.670898, 40.771484, 9.155273, 49.560562
1833550, 0.568359, 0.488037, -0.699219, 43.640137, 5.981447, 38.940430
1833570, 0.548096, 0.439209, -0.750488, 41.137695, 2.136230, 32.592773
1833590, 0.535156, 0.383911, -0.759766, 30.578621, -0.793457, 24.414070
1833610, 0.515259, 0.350220, -0.728271, 21.972656, 6.408693, 21.362305
1833630, 0.560913, 0.363525, -0.724731, 18.432617, 15.380863, 22.277840
1833650, 0.600586, 0.341919, -0.720337, 16.174316, 18.615723, 22.888191
1833670, 0.613770, 0.315674, -0.710083, 10.803223, 19.592285, 20.385742
1833690, 0.692749, 0.438477, -0.663208, 13.977055, 31.799324, 18.737793
1833710, 0.751831, 0.279541, -0.619873, 24.780281, 3.906251, 1.892090
1833730, 0.579102, 0.236572, -0.704834, 15.991215, -19.104004, -21.728516
1833750, 0.448730, 0.300537, -0.717041, -2.197266, -15.686039, -31.250008
1833770, 0.476196, 0.380615, -0.642090, -15.258793, 8.728027, -24.536140
1833790, 0.634644, 0.437256, -0.592896, -20.263672, 46.630875, -12.512211
1833810, 0.799805, 0.525391, -0.546265, -22.033691, 64.880371, -1.525879
1833830, 0.915649, 0.510010, -0.454834, -14.038090, 37.536621, 3.723145
1833850, 0.884766, 0.427368, -0.487549, -4.150391, -4.272461, -7.385256
1833870, 0.701294, 0.389648, -0.585815, -2.075195, -14.160160, -15.258793
1833890, 0.610596, 0.425537, -0.687134, -0.549316, -17.272949, -24.169930
1833910, 0.584229, 0.460693, -0.737671, 0.732422, -14.099125, -24.780281
1833930, 0.527832, 0.477295, -0.757813, 1.708985, -7.751467, -19.592285
1833950, 0.554688, 0.489380, -0.748291, 0.488281, 1.586915, -10.253906
1833970, 0.598389, 0.479980, -0.696899, 0.183106, -0.732422, -9.338379
1833990, 0.567505, 0.422119, -0.645508, -0.549316, 6.896975, -5.798342
1834010, 0.586548, 0.383057, -0.625610, -1.892090, 4.333496, -1.525879
1834030, 0.638550, 0.451050, -0.642578, -6.835939, 18.920898, 2.807618
1834050, 0.719849, 0.446411, -0.606934, -10.437012, 19.958496, -4.028320
1834070, 0.714722, 0.486816, -0.584473, -8.056641, 20.324707, -2.746582
1834090, 0.712646, 0.491821, -0.590454, -7.324221, 3.173829, -8.728027
1834110, 0.623291, 0.494873, -0.596313, -5.676271, 5.187988, -6.774904
1834170, 0.640747, 0.477295, -0.628906, -2.685547, 1.281738, -2.258301
1834190, 0.635864, 0.470093, -0.625854, -1.586915, 0.976563, -3.234864
1834210, 0.640503, 0.463013, -0.619019, -1.098633, -0.488281, -4.577637
1834230, 0.642578, 0.462891, -0.612549, -1.159668, -1.586915, -5.187988
1834250, 0.638306, 0.471069, -0.610962, -1.220703, -1.342773, -5.004883
1834270, 0.633545, 0.496704, -0.625000, -1.770020, -0.793457, -2.624512
1834330, 0.645386, 0.479492, -0.604614, -2.258301, 0.427246, -1.831055
1834350, 0.641968, 0.490601, -0.612183, -1.586915, -0.793457, -2.136230
1834310, 0.640259, 0.471802, -0.609009, -2.319336, 1.037598, -0.671387
1834370, 0.645142, 0.489380, -0.613770, -1.159668, -0.854492, -1.159668
1834390, 0.639526, 0.471558, -0.610107, -1.342773, 0.488281, -2.319336
1834410, 0.636475, 0.457642, -0.604980, -2.197266, 0.854492, -4.272461
1834430, 0.640625, 0.480713, -0.612183, -2.929688, 0.061035, -5.187988
1834450, 0.628052, 0.494507, -0.609253, -2.502441, 3.112794, -2.380371
1834470, 0.631348, 0.470703, -0.612671, -2.563477, 5.187988, -3.051759
1834490, 0.617798, 0.431885, -0.617554, -3.540040, 2.746582, -3.540040
1834510, 0.549072, 0.507446, -0.620605, -2.990724, -4.211426, 8.056641
1834530, 0.732300, 0.482666, -0.600586, -6.225588, 14.892582, -5.920412
1834550, 0.649414, 0.507690, -0.582764, -1.708985, 4.211426, -10.864258
1834570, 0.610962, 0.469849, -0.609375, -0.915528, -1.831055, -7.507326
1834590, 0.634644, 0.532959, -0.595947, -4.699707, 14.282230, -1.525879
1834650, 0.631104, 0.481079, -0.587646, -3.601075, 6.347658, -4.333496
1834670, 0.607666, 0.476929, -0.591064, -3.234864, 6.713869, -4.577637
1834690, 0.597534, 0.485352, -0.603516, -1.525879, 11.413578, -7.812502
1834710, 0.593750, 0.446899, -0.602295, 0.000000, 15.319828, -11.474613
1834730, 0.558350, 0.541382, -0.616699, 0.610352, 20.202637, -7.934572
1834750, 0.653198, 0.565674, -0.589233, 4.516602, 36.254883, -13.183598
1834770, 0.678223, 0.541748, -0.558594, 13.366703, 29.602058, -16.601563
1834790, 0.628052, 0.502563, -0.550903, 8.850098, 14.465336, -6.835939
1834810, 0.694458, 0.519409, -0.537231, -1.098633, 40.527344, -8.239746
1834830, 0.711914, 0.502563, -0.491211, -5.493164, 23.071297, -9.155273
1834850, 0.719849, 0.473633, -0.495361, -13.549809, 15.319828, -12.329105
1834870, 0.701660, 0.649170, -0.458618, -14.526371, 3.601075, -10.009766
1834890, 0.781616, 0.696655, -0.504517, 2.868653, 5.432129, -0.854492
1834910, 0.648560, 0.561279, -0.509033, 3.234864, -16.174316, -0.488281
1834930, 0.645020, 0.542847, -0.571777, -1.464844, -13.732914, 2.075195
1834950, 0.721924, 0.579346, -0.545410, -14.587406, -17.150879, 1.770020
1834970, 0.709106, 0.526245, -0.498657, -21.240234, -19.958496, 5.554201
1834990, 0.734985, 0.517456, -0.456665, -20.202637, -23.925789, 8.361816
1835010, 0.752441, 0.514038, -0.489014, -14.221195, -39.550781, 5.371094
1835030, 0.601196, 0.508789, -0.512207, -15.014652, -25.512703, 12.390141
1835050, 0.625000, 0.535522, -0.562012, -10.070801, -23.193367, 12.207035
1835070, 0.611938, 0.527222, -0.591431, -5.432129, -20.629883, 10.559082
1835110, 0.562988, 0.559082, -0.614014, -4.882813, 7.995607, 13.549809
1835130, 0.614868, 0.570679, -0.592285, -1.770020, 12.146000, 5.920412
1835150, 0.627441, 0.550537, -0.555664, -0.366211, 21.789551, 5.798342
1835170, 0.622681, 0.525513, -0.534912, 3.112794, 24.597176, 7.995607
1835190, 0.624268, 0.548218, -0.547852, 2.685547, 29.602058, 7.995607
1835210, 0.651123, 0.542603, -0.545776, 4.821777, 35.461426, 7.019045
1835230, 0.668457, 0.546021, -0.530518, 9.521484, 36.743164, 4.089355
1835250, 0.711548, 0.583496, -0.533813, 19.226074, 26.123055, -5.493164
1835290, 0.649658, 0.533203, -0.525757, 26.367195, 14.404301, -20.080566
1835310, 0.667603, 0.546021, -0.486206, 19.470215, 30.334480, -14.587406
1835330, 0.760254, 0.574829, -0.466797, 21.423340, 16.052246, -20.263672
1835370, 0.752075, 0.569946, -0.475708, 17.089844, -2.136230, -23.193367
1835390, 0.711304, 0.564819, -0.476074, 6.591799, -6.408693, -17.089844
1835410, 0.744873, 0.541016, -0.480591, -2.502441, -28.076180, -14.526371
1835430, 0.716797, 0.518066, -0.482422, -6.347658, -36.560059, -12.695316
1835450, 0.742554, 0.513062, -0.462280, -6.225588, -49.194351, -9.887695
1835470, 0.698975, 0.546997, -0.531982, -7.995607, -51.391617, -8.850098
1835490, 0.702026, 0.551270, -0.542114, -15.075687, -59.753433, -8.239746
1835510, 0.635986, 0.565552, -0.539307, -21.423340, -62.072769, -6.469728
1835530, 0.541870, 0.579468, -0.550293, -24.536140, -43.212891, -3.234864
1835550, 0.565308, 0.569458, -0.614868, -28.259285, -28.625496, -0.549316
1835570, 0.567383, 0.580322, -0.580200, -27.954109, -23.315437, -1.098633
1835590, 0.546875, 0.585571, -0.620117, -26.794441, -22.705086, -2.563477
1835610, 0.521118, 0.661499, -0.609131, -34.240723, -7.873537, -3.967286
1835630, 0.591309, 0.567383, -0.559814, -28.747566, 16.113281, -10.131836
1835650, 0.525391, 0.615356, -0.571289, -29.785164, 12.329105, -11.047363
1835670, 0.544189, 0.616821, -0.548096, -24.658211, 25.329597, -13.061527
1835690, 0.590942, 0.619263, -0.513672, -19.836426, 27.954109, -14.892582
1835710, 0.598755, 0.637451, -0.518555, -13.671879, 27.709969, -19.836426
1835730, 0.599731, 0.649658, -0.529053, -10.986328, 20.874023, -21.789551
1835750, 0.511597, 0.609985, -0.489624, -3.784181, 33.203125, -23.132332
1835770, 0.574097, 0.644409, -0.540039, -0.915528, 28.076180, -21.362305
1835790, 0.606323, 0.672729, -0.395020, 12.390141, 34.301758, -21.911621
1835810, 0.624268, 0.603638, -0.526489, 23.864754, 19.287109, -22.949226
1835830, 0.633545, 0.642578, -0.460693, 27.221687, 8.605957, -23.498543
1835850, 0.631714, 0.621338, -0.450195, 32.775879, -10.498047, -23.864754
1835870, 0.552368, 0.631348, -0.469360, 30.456551, -12.451176, -16.540527
1835890, 0.616089, 0.626099, -0.441040, 31.127937, -13.244633, -10.314941
1835910, 0.609863, 0.602539, -0.468628, 35.644531, -22.583015, -8.056641
1835930, 0.583862, 0.616211, -0.488770, 39.367676, -30.090340, -4.516602
1835950, 0.592896, 0.586792, -0.540283, 39.245605, -35.034180, -0.671387
1835970, 0.568726, 0.594971, -0.588501, 36.010742, -42.053223, 7.019045
1835990, 0.561523, 0.607178, -0.634644, 22.521980, -43.823242, 9.643555
1836010, 0.546021, 0.599731, -0.585571, 14.465336, -46.997086, 13.244633
1836030, 0.494019, 0.601563, -0.627808, 8.117676, -33.630371, 20.996094
1836050, 0.478149, 0.647949, -0.645508, 0.793457, -25.939949, 22.521980
1836070, 0.440796, 0.573853, -0.630859, -4.394531, -10.742188, 29.113777
1836090, 0.481934, 0.597168, -0.643433, -8.239746, 0.427246, 35.400391
1836110, 0.492432, 0.525757, -0.630249, -13.916019, 10.986328, 44.006348
1836130, 0.451660, 0.601685, -0.544922, -10.375977, -5.371094, 55.358902
1836150, 0.585815, 0.654663, -0.667358, -12.695316, 40.893555, 35.278320
1836170, 0.547974, 0.598877, -0.624268, -9.582520, 27.343758, 24.414070
1836190, 0.614136, 0.613525, -0.640015, -5.981447, 20.141602, 15.625004
1836210, 0.594971, 0.560303, -0.612793, -3.112794, 11.169437, 5.981447
1836230, 0.519043, 0.580200, -0.577271, -0.793457, 23.193367, 8.728027
1836250, 0.589600, 0.564453, -0.577393, 0.183106, 29.296883, 9.521484
1836270, 0.647705, 0.580078, -0.578979, -0.244141, 25.085457, 5.187988
1836290, 0.624268, 0.581421, -0.558960, -0.305176, 18.005371, 3.601075
1836310, 0.641357, 0.578857, -0.557373, -0.915528, 13.488773, 2.807618
1836330, 0.653687, 0.567017, -0.536011, 0.427246, 7.934572, 2.136230
1836350, 0.681396, 0.600952, -0.558350, 3.356935, 0.366211, 1.708985
1836370, 0.680908, 0.685059, -0.605713, 6.164553, 1.708985, 4.211426
1836390, 0.695435, 0.732422, -0.621704, -11.108402, 2.441406, 10.375977
1836410, 0.665283, 1.024414, -0.233154, 42.541504, -31.799324, 74.218750
1836430, 0.919678, 0.547729, -0.573975, 63.110367, -11.840824, 77.026367
1836450, 0.723999, 0.328247, -0.511963, 37.292480, -62.377945, 54.321304
1836470, 0.563599, 0.304321, -0.582642, 19.348145, -71.472168, 40.527344
1836490, 0.560059, 0.376953, -0.658081, 4.516602, -55.175797, 29.663094
1836510, 0.532471, 0.442749, -0.673218, 7.324221, -38.269043, 23.986824
1836530, 0.519775, 0.449097, -0.744873, 11.840824, -26.367195, 24.719246
1836550, 0.518555, 0.350098, -0.732056, 15.747074, -10.864258, 20.263672
