timestamp,ax,ay,az,gx,gy,gz
1055526, 0.249268, 0.925537, -0.314087, 0.244141, -0.488281, 0.488281
1055546, 0.261230, 0.928223, -0.286987, -3.356935, 0.610352, 1.953125
1055566, 0.268066, 0.933960, -0.270630, -3.906251, 0.305176, 2.075195
1055586, 0.271729, 0.934937, -0.255249, -3.234864, 0.244141, 1.892090
1055606, 0.277832, 0.937988, -0.251587, -1.953125, 0.122070, 1.342773
1055626, 0.276855, 0.934204, -0.261108, -1.159668, -0.732422, 0.793457
1055646, 0.269409, 0.935059, -0.264038, -1.037598, -2.075195, 0.793457
1055666, 0.261475, 0.934570, -0.265625, -0.854492, -1.708985, 1.159668
1055686, 0.265015, 0.933960, -0.263794, -0.793457, -1.892090, 1.770020
1055706, 0.265503, 0.936157, -0.262695, -0.549316, -1.220703, 2.075195
1055726, 0.271851, 0.934204, -0.263062, -0.183106, 0.488281, 1.953125
1055746, 0.274414, 0.933838, -0.261475, 0.244141, 2.258301, 1.647950
1055766, 0.284912, 0.931763, -0.268188, 0.000000, -0.549316, 1.525879
1055786, 0.282227, 0.931885, -0.266602, -0.305176, -0.915528, 0.671387
1055806, 0.276733, 0.932983, -0.262329, -0.366211, -0.549316, 0.244141
1055826, 0.275146, 0.933472, -0.263306, -0.183106, -0.366211, 0.061035
1055846, 0.273315, 0.931763, -0.268799, -0.366211, -0.305176, 0.061035
1055866, 0.271729, 0.932373, -0.266846, -0.915528, -0.366211, 0.183106
1055886, 0.273315, 0.933105, -0.262329, -0.915528, 0.061035, 0.305176
1055906, 0.277466, 0.933350, -0.261719, -0.915528, 0.000000, 0.183106
1055926, 0.275879, 0.933472, -0.264038, -1.342773, -0.244141, 0.122070
1055946, 0.275757, 0.935791, -0.255615, -1.220703, -0.244141, 0.122070
1055966, 0.274902, 0.935791, -0.251221, -0.610352, -0.488281, 0.122070
1055986, 0.278320, 0.934082, -0.257568, -0.183106, -0.549316, 0.122070
1056006, 0.278564, 0.933838, -0.258789, -0.183106, -0.671387, -0.122070
1056026, 0.278320, 0.934692, -0.257324, 0.000000, -0.488281, -0.427246
1056046, 0.273926, 0.932983, -0.259033, 0.000000, -0.549316, -0.549316
1056066, 0.274780, 0.933716, -0.260132, -0.122070, -0.549316, -0.366211
1056086, 0.272217, 0.935425, -0.258301, -0.122070, -0.427246, -0.244141
1056106, 0.270874, 0.933594, -0.262817, -0.244141, -0.122070, -0.061035
1056126, 0.273315, 0.935547, -0.254517, -0.427246, -0.488281, 0.366211
1056146, 0.271729, 0.935181, -0.255127, -0.061035, -0.122070, 0.549316
1056166, 0.273071, 0.935547, -0.257935, -0.061035, -0.122070, 0.915528
1056186, 0.268555, 0.937256, -0.249268, 0.244141, -0.671387, 1.403809
1056206, 0.267822, 0.936279, -0.249268, 1.098633, -0.183106, 2.136230
1056226, 0.261108, 0.935303, -0.250854, 1.831055, 3.295899, 2.441406
1056246, 0.261597, 0.934570, -0.256470, 2.380371, 7.202150, 2.929688
1056266, 0.277954, 0.930420, -0.267090, 1.892090, 6.408693, 3.967286
1056286, 0.283203, 0.928467, -0.270874, 0.610352, 3.784181, 4.638672
1056306, 0.271973, 0.929077, -0.268311, -1.159668, 3.784181, 5.859377
1056326, 0.278687, 0.929810, -0.261108, -1.708985, 7.385256, 6.164553
1056346, 0.295044, 0.929199, -0.252075, -1.831055, 9.582520, 5.981447
1056366, 0.310181, 0.929810, -0.247559, -1.586915, 9.399414, 4.943848
1056386, 0.312256, 0.928101, -0.250122, -1.708985, 7.812502, 3.967286
1056406, 0.316040, 0.928101, -0.247192, -1.892090, 5.920412, 2.990724
1056426, 0.318237, 0.929688, -0.240967, -1.770020, 4.943848, 1.953125
1056446, 0.322754, 0.930054, -0.236572, -1.342773, 0.671387, 1.098633
1056466, 0.315186, 0.930664, -0.235474, -0.671387, 0.549316, -0.183106
1056486, 0.305664, 0.932739, -0.233765, 0.122070, 0.122070, -0.915528
1056506, 0.297729, 0.930542, -0.240845, 1.037598, -0.061035, -0.549316
1056526, 0.300903, 0.928711, -0.246338, 0.976563, 0.000000, -0.366211
1056546, 0.299561, 0.928467, -0.251221, 0.549316, 0.305176, -0.366211
1056566, 0.302124, 0.927979, -0.247681, 0.061035, 0.305176, -0.305176
1056586, 0.305542, 0.928345, -0.248413, -0.244141, 0.549316, -0.549316
1056606, 0.305786, 0.928833, -0.242188, -0.427246, 0.427246, -1.098633
1056626, 0.300537, 0.932495, -0.239868, -0.061035, 0.732422, -1.342773
1056646, 0.298950, 0.929443, -0.245972, -0.061035, 1.159668, -1.342773
1056666, 0.297729, 0.929810, -0.242432, -0.305176, 0.732422, -1.037598
1056686, 0.301147, 0.931885, -0.240234, -0.122070, 0.122070, -0.549316
1056706, 0.305908, 0.932617, -0.231812, 0.305176, 0.122070, -0.915528
1056726, 0.295288, 0.938721, -0.230591, 1.281738, 0.854492, -1.159668
1056746, 0.286743, 0.941162, -0.225342, 2.441406, 0.366211, -0.183106
1056766, 0.281006, 0.948608, -0.218750, 4.333496, 0.366211, 1.342773
1056786, 0.285889, 0.966675, -0.207153, 7.751467, 7.141115, 1.831055
1056806, 0.360962, 1.004150, -0.132568, 20.935059, 5.554201, -4.394531
1056826, 0.293701, 1.008545, -0.081299, 46.508804, 0.671387, -15.502934
1056846, 0.235107, 0.978394, -0.142334, 76.416016, -8.972168, -20.751953
1056866, 0.216431, 1.028442, -0.224121, 108.398468, -18.676758, -23.498543
1056886, 0.195923, 0.918579, -0.219971, 165.710449, -12.878422, -37.780762
1056906, 0.093872, 0.788086, -0.333130, 202.148499, 0.488281, -53.100601
1056926, 0.028320, 0.679565, -0.567261, 211.975159, 31.311043, -47.424332
1056946, 0.146729, 0.579712, -0.885132, 169.433594, 43.395996, -31.921394
1056966, 0.250366, 0.517212, -1.003052, 101.013214, 64.453125, -31.616219
1056986, 0.295288, 0.568481, -0.855713, 41.748047, 56.823746, -40.222168
1057006, 0.270752, 0.644653, -0.660400, 13.061527, 41.259766, -47.302261
1057026, 0.278809, 0.704590, -0.560059, 8.666992, 27.160652, -46.142593
1057046, 0.246460, 0.748779, -0.564087, 8.544922, 25.329597, -39.184570
1057066, 0.212158, 0.791016, -0.621582, 0.366211, 39.306641, -17.456055
1057086, 0.251099, 0.786743, -0.606689, -5.737307, 48.889175, -4.882813
1057106, 0.300415, 0.828369, -0.587646, -9.277344, 50.231949, 3.723145
1057126, 0.364380, 0.814331, -0.556641, -7.873537, 44.677750, 5.737307
1057146, 0.384521, 0.824707, -0.580200, -8.239746, 31.677254, 2.319336
1057166, 0.365356, 0.927002, -0.573242, -5.859377, 16.296387, 7.141115
1057186, 0.406616, 0.795044, -0.535278, -3.295899, 4.760742, 4.699707
1057206, 0.313354, 0.775391, -0.574341, -0.610352, -5.920412, -0.488281
1057226, 0.257935, 0.781738, -0.597778, -4.150391, -2.746582, -1.831055
1057246, 0.248169, 0.789063, -0.582397, -3.540040, 1.220703, -2.136230
1057266, 0.232300, 0.791382, -0.633057, -5.004883, 8.789063, -8.728027
1057286, 0.238281, 0.775269, -0.638062, -3.417970, 15.075687, -19.714355
1057306, 0.226929, 0.750732, -0.640381, -0.854492, 19.104004, -24.475105
1057326, 0.262817, 0.734863, -0.625488, 4.394531, 18.371582, -27.893074
1057346, 0.257935, 0.706787, -0.614136, 14.404301, 14.404301, -32.287598
1057366, 0.222046, 0.713867, -0.622803, 25.512703, 16.235352, -34.057617
1057386, 0.174438, 0.704468, -0.659058, 29.541023, 25.146492, -27.648933
1057406, 0.190430, 0.690674, -0.650391, 30.334480, 42.175293, -15.869144
1057426, 0.237671, 0.732056, -0.667725, 26.306160, 51.513687, 0.305176
1057446, 0.310181, 0.737671, -0.608154, 13.122562, 61.035172, 23.986824
1057466, 0.348999, 0.751465, -0.522095, 8.056641, 65.368652, 36.743164
1057486, 0.378906, 0.745850, -0.455811, 6.164553, 63.781754, 52.795425
1057506, 0.433838, 0.760498, -0.427612, 3.906251, 58.349625, 64.636230
1057526, 0.502441, 0.779541, -0.418457, -0.793457, 45.898453, 70.556641
1057546, 0.567139, 0.807495, -0.418335, -1.281738, 23.986824, 64.270020
1057566, 0.571533, 0.793579, -0.489380, -10.498047, -0.854492, 61.462418
1057586, 0.551636, 0.820313, -0.549561, -22.766121, -28.442390, 54.870621
1057606, 0.440186, 0.804443, -0.608887, -39.184570, -36.071777, 47.790543
1057626, 0.414795, 0.808960, -0.614014, -49.560562, -30.517586, 39.611816
1057646, 0.456055, 0.793213, -0.665649, -67.016602, -51.574722, 18.127441
1057666, 0.438721, 0.757813, -0.623657, -72.509766, -57.678238, 1.403809
1057686, 0.351318, 0.766846, -0.521484, -64.697266, -57.678238, -11.779789
1057706, 0.281372, 0.776367, -0.499634, -49.865738, -43.579102, -19.409180
1057726, 0.269043, 0.770996, -0.539673, -37.597656, -14.221195, -25.207527
1057746, 0.322144, 0.770020, -0.558105, -29.602058, 12.573246, -34.301758
1057766, 0.346558, 0.795776, -0.493164, -17.700195, 15.441898, -43.212891
1057786, 0.401978, 0.799438, -0.478271, -2.807618, 15.808109, -56.640640
1057806, 0.336670, 0.771606, -0.462524, 9.155273, 23.498543, -64.147949
1057826, 0.340332, 0.813599, -0.463867, 16.235352, 30.761726, -57.250992
1057846, 0.375244, 0.807373, -0.518188, 7.629396, 41.259766, -57.495132
1057866, 0.422729, 0.840210, -0.517334, -10.681152, 35.095215, -54.870621
1057886, 0.482056, 0.842163, -0.508423, -32.592773, 23.925789, -54.931656
1057906, 0.557129, 0.803711, -0.490112, -56.518570, 1.953125, -58.349625
1057926, 0.556152, 0.812256, -0.412354, -76.904297, -38.635254, -58.288589
1057946, 0.505493, 0.807373, -0.390381, -97.717316, -79.101563, -54.138199
1057966, 0.428345, 0.795532, -0.330688, -113.708527, -114.624054, -42.907715
1057986, 0.348877, 0.849854, -0.224487, -113.098175, -143.127441, -22.949226
1058006, 0.274170, 0.865112, -0.187378, -105.590851, -149.963379, -3.479005
1058026, 0.194702, 0.922119, -0.190430, -79.833984, -134.094238, 23.010262
1058046, 0.115112, 0.970459, -0.138062, -49.865738, -100.952179, 37.353516
1058066, 0.083618, 1.000610, -0.099243, -9.643555, -90.576202, 54.199234
1058086, 0.036621, 0.984375, -0.142456, 31.188972, -78.857422, 66.528320
1058106, 0.004395, 0.966431, -0.200928, 63.598648, -61.218277, 63.903824
1058126, -0.037354, 0.972412, -0.273193, 77.514648, -30.029305, 47.790543
1058146, -0.014038, 0.956299, -0.343018, 80.932617, 5.065918, 31.555183
1058166, 0.032471, 0.937622, -0.414795, 78.979492, 21.301270, 17.333984
1058186, -0.011597, 0.897949, -0.427246, 79.895020, 32.043457, 13.610844
1058206, 0.048584, 0.883179, -0.333130, 97.412140, 59.265152, 14.404301
1058226, 0.092651, 0.863159, -0.371094, 110.229523, 75.012207, 17.089844
1058246, 0.188721, 0.804321, -0.474243, 111.572296, 97.229034, 20.324707
1058266, 0.309082, 0.775635, -0.591187, 98.571808, 119.873077, 22.705086
1058286, 0.434448, 0.751465, -0.662598, 69.580078, 130.859375, 23.071297
1058306, 0.548828, 0.752197, -0.608398, 41.625977, 114.807159, 24.963387
