timestamp,ax,ay,az,gx,gy,gz
1128770, 0.600098, 0.676880, -0.436646, -5.126953, 8.361816, -2.563477
1128790, 0.608276, 0.690918, -0.363892, -1.953125, 5.371094, -2.075195
1128810, 0.614624, 0.693970, -0.381714, 1.159668, 2.624512, -1.831055
1128830, 0.610596, 0.693115, -0.396973, 2.685547, 0.000000, -1.159668
1128850, 0.611572, 0.689941, -0.416504, 2.929688, -5.065918, 0.122070
1128870, 0.599243, 0.688232, -0.428955, 2.014160, -4.150391, 0.549316
1128890, 0.595337, 0.689087, -0.421265, 1.525879, -1.525879, 1.281738
1128910, 0.604492, 0.684326, -0.423950, 1.037598, -1.037598, 2.136230
1128930, 0.615845, 0.682617, -0.415527, 0.488281, -1.403809, 2.014160
1128950, 0.615479, 0.682617, -0.412476, 0.671387, -1.159668, 1.403809
1128970, 0.616089, 0.685059, -0.414063, 0.732422, -1.647950, 0.976563
1128990, 0.611328, 0.684204, -0.416016, 0.732422, -1.220703, 0.793457
1129010, 0.613647, 0.683716, -0.415894, 0.854492, -0.793457, 0.732422
1129030, 0.616577, 0.681885, -0.416626, 0.732422, -0.915528, 0.366211
1129050, 0.612305, 0.682739, -0.414185, 0.793457, -1.953125, 0.244141
1129070, 0.610474, 0.682495, -0.413086, 1.037598, -2.258301, 0.366211
1129090, 0.609619, 0.682251, -0.417114, 1.159668, -1.831055, 0.244141
1129110, 0.612305, 0.681152, -0.419312, 1.098633, -1.037598, 0.183106
1129130, 0.610229, 0.681274, -0.419312, 0.915528, -1.342773, 0.183106
1129150, 0.611206, 0.680664, -0.416748, 0.915528, -1.831055, 0.244141
1129170, 0.609985, 0.681274, -0.419067, 1.159668, -1.586915, 0.366211
1129190, 0.610474, 0.681885, -0.419556, 1.037598, -1.586915, 0.488281
1129210, 0.612061, 0.681519, -0.412720, 1.464844, -1.403809, 0.427246
1129230, 0.609863, 0.679932, -0.419678, 1.770020, -1.403809, 0.366211
1129250, 0.608887, 0.679565, -0.424561, 1.586915, -1.586915, 0.488281
1129270, 0.613403, 0.678467, -0.426025, 1.220703, -1.342773, 0.488281
1129290, 0.614014, 0.678101, -0.425293, 0.854492, -1.159668, 0.183106
1129310, 0.612549, 0.679077, -0.422485, 0.671387, -1.098633, -0.244141
1129330, 0.605835, 0.678955, -0.424438, 0.671387, -0.122070, -0.183106
1129350, 0.607788, 0.679199, -0.424927, 0.366211, -0.305176, 0.183106
1129370, 0.613037, 0.679199, -0.419434, 0.244141, -0.488281, 0.061035
1129390, 0.614136, 0.679321, -0.420532, 0.549316, -0.976563, -0.061035
1129410, 0.612549, 0.679321, -0.423462, 0.366211, -1.403809, -0.122070
1129430, 0.609619, 0.679810, -0.421509, 0.366211, -1.159668, -0.061035
1129450, 0.610107, 0.679199, -0.423462, 0.366211, -1.281738, 0.000000
1129470, 0.610596, 0.679565, -0.421265, 0.366211, -1.708985, 0.183106
1129490, 0.610474, 0.677979, -0.421875, 0.488281, -1.586915, 0.122070
1129510, 0.609985, 0.677856, -0.424927, 0.366211, -1.464844, 0.122070
1129530, 0.614868, 0.679199, -0.423828, 0.183106, -1.708985, 0.000000
1129550, 0.608032, 0.678955, -0.423218, 0.183106, -1.770020, -0.122070
1129570, 0.607422, 0.678711, -0.423096, 0.122070, -1.647950, 0.061035
1129590, 0.608276, 0.679443, -0.422607, 0.183106, -1.159668, 0.061035
1129610, 0.610962, 0.678345, -0.424072, 0.183106, -1.342773, 0.122070
1129630, 0.610352, 0.678101, -0.425903, 0.000000, -1.281738, 0.000000
1129650, 0.609253, 0.679688, -0.421997, 0.061035, -1.281738, 0.000000
1129670, 0.610352, 0.678833, -0.420044, 0.305176, -1.037598, 0.000000
1129690, 0.610596, 0.679321, -0.423950, 0.488281, -1.525879, -0.061035
1129710, 0.608765, 0.678833, -0.425537, 0.366211, -1.159668, -0.122070
1129730, 0.608154, 0.678467, -0.424561, 0.244141, -0.976563, -0.061035
1129750, 0.608154, 0.678711, -0.423584, 0.122070, -0.976563, 0.000000
1129770, 0.609009, 0.679199, -0.421631, 0.366211, -0.854492, 0.122070
1129790, 0.610596, 0.678955, -0.423706, 0.427246, -1.098633, 0.061035
1129810, 0.612427, 0.678345, -0.425293, 0.366211, -1.098633, -0.061035
1129830, 0.607422, 0.679199, -0.425293, 0.366211, -0.976563, -0.183106
1129850, 0.609009, 0.678833, -0.426270, 0.183106, -0.671387, 0.000000
1129870, 0.609985, 0.679932, -0.421143, 0.244141, -0.915528, 0.000000
1129890, 0.605591, 0.679688, -0.422729, 0.366211, -0.549316, 0.000000
1129910, 0.609253, 0.677612, -0.424194, 0.549316, -0.915528, 0.427246
1129930, 0.610962, 0.679932, -0.424438, 0.427246, -0.793457, 0.244141
1129950, 0.608276, 0.678955, -0.420288, 0.671387, -0.549316, 0.244141
1129970, 0.610107, 0.678711, -0.423706, 0.915528, -0.732422, 0.183106
1129990, 0.608276, 0.677490, -0.429932, 0.549316, -0.427246, 0.366211
1130010, 0.614990, 0.677002, -0.425659, 0.244141, -0.549316, 0.183106
1130030, 0.607666, 0.678101, -0.423828, 0.244141, -0.366211, 0.122070
1130050, 0.612427, 0.678955, -0.423218, 0.305176, -0.244141, 0.183106
1130070, 0.610962, 0.677979, -0.423218, 0.366211, -0.488281, 0.061035
1130090, 0.611572, 0.676880, -0.424438, 0.366211, 0.000000, 0.000000
1130110, 0.597778, 0.679199, -0.421997, 0.488281, 1.953125, 0.671387
1130130, 0.592896, 0.682007, -0.419678, 1.098633, 4.150391, 1.220703
1130150, 0.555664, 0.688477, -0.411133, 2.441406, 12.573246, 3.051759
1130170, 0.491577, 0.674683, -0.460083, 1.953125, 24.536140, 7.873537
1130190, 0.601196, 0.698486, -0.452148, 0.183106, 49.743668, 5.004883
1130210, 0.661499, 0.686646, -0.436279, -0.854492, 42.663574, 2.807618
1130230, 0.666992, 0.701050, -0.406860, 4.882813, 38.269043, -5.737307
1130250, 0.658569, 0.674194, -0.395142, 11.962894, 28.808601, -10.803223
1130270, 0.668701, 0.668701, -0.404175, 15.991215, 24.353035, -13.305668
1130290, 0.679443, 0.651978, -0.378296, 25.695808, 11.901859, -18.432617
1130310, 0.627319, 0.609741, -0.478271, 25.695808, 11.840824, -15.014652
1130330, 0.616455, 0.597168, -0.442871, 20.629883, 18.310547, -9.338379
1130350, 0.663086, 0.595703, -0.443848, 12.939457, 26.000984, -3.295899
1130370, 0.741821, 0.589478, -0.400757, 7.690432, 18.432617, -0.976563
1130390, 0.753174, 0.589111, -0.362915, 5.859377, 12.634281, 0.915528
1130410, 0.745605, 0.594604, -0.333130, 5.004883, 4.455566, 2.136230
1130430, 0.710327, 0.638672, -0.310913, 3.417970, 1.159668, 2.929688
1130450, 0.704590, 0.723267, -0.308105, 2.136230, -0.732422, 2.258301
1130470, 0.720703, 0.665649, -0.280396, 1.159668, -14.892582, 1.403809
1130490, 0.694702, 0.703979, -0.294678, -0.244141, -35.827637, 1.159668
1130510, 0.687012, 0.722534, -0.342285, -6.469728, -45.288101, -1.281738
1130530, 0.552124, 0.718262, -0.359009, -10.498047, -52.246109, 4.089355
1130550, 0.480957, 0.720947, -0.387939, -20.080566, -44.311539, 13.061527
1130570, 0.443726, 0.731934, -0.320679, -24.536140, -29.296883, 26.672371
1130590, 0.502441, 0.716064, -0.329102, -25.085457, -8.972168, 36.804199
1130610, 0.599487, 0.692749, -0.361084, -23.620613, -5.065918, 40.588379
1130630, 0.644531, 0.686157, -0.405151, -24.719246, -4.211426, 39.184570
1130650, 0.679565, 0.715454, -0.423096, -24.475105, -5.371094, 31.799324
1130670, 0.739014, 0.679077, -0.459961, -29.541023, -7.385256, 21.667480
1130690, 0.700928, 0.688721, -0.462891, -41.870117, -16.296387, 8.666992
1130710, 0.638184, 0.730469, -0.414795, -38.635254, -19.775391, -0.549316
1130730, 0.621826, 0.714722, -0.463623, -44.006348, -4.089355, -9.460449
1130750, 0.629395, 0.724243, -0.387329, -43.518066, 4.760742, -16.174316
1130770, 0.663574, 0.720337, -0.403076, -44.189453, 6.286623, -23.376472
1130790, 0.644775, 0.722656, -0.370972, -43.762207, 8.850098, -32.409668
1130810, 0.625366, 0.720459, -0.320923, -38.330078, 11.718754, -38.330078
1130830, 0.607910, 0.721558, -0.318237, -30.334480, 15.441898, -41.687012
1130850, 0.597046, 0.742798, -0.312256, -23.376472, 20.141602, -44.616714
1130870, 0.591797, 0.705811, -0.280762, -9.338379, 9.521484, -40.405273
1130890, 0.539063, 0.726440, -0.282349, 0.610352, 3.601075, -31.433113
1130910, 0.535156, 0.736694, -0.299072, 8.544922, 4.882813, -24.841316
1130930, 0.556641, 0.767944, -0.301147, 18.615723, 3.173829, -23.437508
1130950, 0.484253, 0.774536, -0.270264, 31.494148, 11.352543, -22.033691
1130970, 0.514160, 0.786743, -0.284180, 44.250504, 21.423340, -20.812988
1130990, 0.535278, 0.798340, -0.331543, 46.813980, 26.672371, -23.132332
1131010, 0.563110, 0.819458, -0.331299, 45.776382, 30.700691, -27.832039
1131030, 0.582031, 0.796753, -0.381470, 38.269043, 27.526863, -37.109375
1131050, 0.563232, 0.791870, -0.361206, 22.949226, 33.935547, -40.893555
1131070, 0.576050, 0.819092, -0.331177, 1.159668, 43.640137, -45.593277
1131090, 0.625244, 0.822021, -0.308960, -9.033203, 39.794922, -56.213394
1131110, 0.592529, 0.815552, -0.250732, -14.892582, 20.202637, -60.607925
1131130, 0.569336, 0.809570, -0.247192, -20.568848, 8.178711, -64.636230
1131150, 0.545776, 0.810181, -0.249146, -28.930672, -4.333496, -62.133804
1131170, 0.561279, 0.810425, -0.238770, -37.597656, -19.470215, -62.866226
1131190, 0.524170, 0.805908, -0.235718, -49.133316, -38.391113, -57.983414
1131210, 0.515625, 0.804321, -0.239380, -60.607925, -48.584000, -54.504410
1131230, 0.489380, 0.804688, -0.196289, -69.274902, -64.270020, -47.180191
1131250, 0.456177, 0.817749, -0.177612, -79.101563, -73.669434, -33.508301
1131270, 0.431030, 0.828735, -0.182983, -86.669922, -77.575684, -25.939949
1131290, 0.420288, 0.850220, -0.159912, -93.261749, -79.589844, -18.737793
1131310, 0.421631, 0.865234, -0.136475, -97.534210, -85.693359, -11.352543
1131330, 0.397583, 0.897095, -0.088623, -94.665558, -98.571808, -4.089355
1131350, 0.368896, 0.927490, -0.071777, -90.209991, -101.318390, 1.525879
1131370, 0.276489, 0.968140, -0.002197, -77.148438, -108.642609, 6.896975
1131390, 0.209106, 1.007568, 0.046631, -54.870621, -101.745636, 14.709476
1131410, 0.191650, 1.009888, 0.026978, -30.761726, -88.745148, 20.568848
1131430, 0.208984, 1.005981, -0.001343, -8.544922, -73.547363, 24.536140
1131450, 0.196533, 0.994263, -0.038940, 17.395020, -61.279312, 33.813477
1131470, 0.161377, 0.971802, -0.063843, 31.250008, -53.344742, 43.945313
1131490, 0.163818, 0.944702, -0.109131, 43.090820, -37.841797, 56.030289
1131510, 0.233032, 0.933838, -0.108398, 58.593765, -27.587898, 68.786621
1131530, 0.229736, 0.891602, -0.141113, 73.913574, -25.329597, 76.171875
1131550, 0.267334, 0.881836, -0.200684, 82.824707, 0.610352, 78.186035
1131570, 0.340088, 0.879272, -0.218018, 86.486816, 22.888191, 72.326660
1131590, 0.403809, 0.912109, -0.202881, 92.895538, 40.588379, 59.082047
1131610, 0.463501, 0.900513, -0.221680, 101.989777, 57.128922, 42.907715
1131630, 0.525513, 0.901489, -0.241455, 117.797882, 68.481445, 11.352543
1131650, 0.600586, 0.812866, -0.385986, 112.731964, 72.387695, -6.164553
1131670, 0.644287, 0.782715, -0.423584, 96.496613, 62.316910, -19.958496
1131690, 0.619629, 0.750854, -0.450073, 71.960449, 46.020523, -25.451668
1131710, 0.585571, 0.748169, -0.417603, 49.682632, 26.489265, -22.338875
1131730, 0.574097, 0.740112, -0.382446, 31.127937, 19.592285, -18.432617
