timestamp,ax,ay,az,gx,gy,gz
1538014, 0.577393, 0.741577, -0.340820, 124.328644, -21.667480, 32.836914
1538034, 0.528931, 0.224609, -0.823486, 89.965851, -40.771484, 26.123055
1538054, 0.438354, 0.261597, -0.697754, 35.400391, -34.484863, 7.385256
1538074, 0.460815, 0.449829, -0.668335, 25.756844, -40.405273, -12.634281
1538094, 0.321167, 0.815186, -0.834595, 26.367195, -35.400391, -15.197758
1538114, 0.329102, 0.813721, -0.780884, 38.391113, -24.963387, -2.685547
1538134, 0.363159, 0.453735, -0.775269, 34.606934, -23.620613, -3.662110
1538154, 0.315430, 0.276001, -0.726807, 13.000492, -14.343266, -7.568361
1538174, 0.367188, 0.460815, -0.747314, -1.831055, -1.464844, -14.953617
1538194, 0.410156, 0.548584, -0.748535, 2.929688, 4.760742, -19.470215
1538214, 0.343262, 0.527222, -0.749268, 5.065918, 8.666992, -12.939457
1538234, 0.369141, 0.567139, -0.740845, 0.793457, 19.836426, -3.112794
1538254, 0.447754, 0.612671, -0.692749, 4.394531, 24.414070, -0.183106
1538274, 0.478027, 0.487183, -0.709473, 9.765625, 13.000492, -3.112794
1538294, 0.481201, 0.451904, -0.721191, 2.685547, 3.601075, -5.859377
1538314, 0.485718, 0.468262, -0.692993, 0.000000, -1.708985, -10.620117
1538334, 0.424072, 0.526855, -0.719604, 1.159668, -7.568361, -11.413578
1538354, 0.406372, 0.587036, -0.762207, 0.854492, -3.540040, -5.554201
1538374, 0.413574, 0.580444, -0.745605, 1.220703, -2.258301, -1.464844
1538394, 0.412720, 0.561035, -0.724731, 3.295899, -1.159668, -0.122070
1538414, 0.430054, 0.541260, -0.732666, 2.868653, -1.159668, 0.183106
1538434, 0.419922, 0.561279, -0.733887, 1.464844, -1.464844, 1.464844
1538454, 0.423340, 0.562988, -0.720459, 3.662110, 2.929688, 3.540040
1538474, 0.435181, 0.544434, -0.733154, 5.981447, -0.610352, 2.197266
1538494, 0.421631, 0.533203, -0.731079, 6.469728, -1.953125, 0.793457
1538514, 0.421509, 0.547607, -0.742188, 6.835939, -1.220703, 0.488281
1538534, 0.414307, 0.547974, -0.752930, 6.469728, -1.708985, -0.244141
1538554, 0.404907, 0.550171, -0.759766, 4.943848, -1.342773, 0.915528
1538574, 0.415039, 0.543823, -0.749512, 4.333496, -1.220703, 0.976563
1538594, 0.421143, 0.526611, -0.745483, 5.004883, -1.037598, 0.427246
1538614, 0.424805, 0.533447, -0.745483, 4.943848, -0.061035, 0.732422
1538634, 0.415527, 0.534912, -0.735718, 5.493164, 2.197266, 2.075195
1538654, 0.420044, 0.546265, -0.750610, 5.676271, 5.371094, 4.272461
1538674, 0.426025, 0.547729, -0.753906, 5.554201, 4.272461, 4.028320
1538694, 0.433350, 0.531250, -0.755371, 4.516602, 0.488281, 1.831055
1538714, 0.420044, 0.520508, -0.762329, 2.990724, -2.624512, -0.671387
1538734, 0.418945, 0.513672, -0.764282, 1.342773, -2.380371, -0.915528
1538754, 0.420776, 0.512451, -0.761475, -0.305176, -2.441406, -1.281738
1538774, 0.393799, 0.526123, -0.755005, -1.281738, 1.953125, -0.122070
1538794, 0.416016, 0.533447, -0.744995, 0.488281, 5.737307, 1.403809
1538814, 0.432007, 0.531616, -0.742310, 2.807618, 6.530764, 1.403809
1538834, 0.450439, 0.526245, -0.735840, 5.737307, 5.065918, 1.464844
1538854, 0.440674, 0.530396, -0.747314, 5.737307, 3.906251, 2.258301
1538874, 0.447632, 0.542358, -0.750854, 5.371094, 3.356935, 3.051759
1538894, 0.452271, 0.525635, -0.746460, 6.408693, 3.173829, 3.295899
1538914, 0.452026, 0.503784, -0.746460, 6.469728, 0.610352, 1.953125
1538934, 0.428711, 0.507813, -0.749146, 6.347658, 0.915528, 1.281738
1538954, 0.430908, 0.519287, -0.760742, 6.225588, 1.586915, 1.892090
1538974, 0.434082, 0.534668, -0.766479, 6.042482, 1.586915, 3.784181
1538994, 0.427368, 0.511475, -0.752441, 7.385256, 4.821777, 4.943848
1539014, 0.439575, 0.493286, -0.747192, 7.812502, 5.798342, 3.967286
1539034, 0.443237, 0.493774, -0.767456, 5.126953, 8.422852, 3.723145
1539054, 0.460205, 0.515381, -0.755127, 4.638672, 8.178711, 3.356935
1539074, 0.474854, 0.514160, -0.756592, 4.272461, 4.577637, 2.990724
1539094, 0.449341, 0.502197, -0.755615, 2.990724, 3.845216, 3.051759
1539114, 0.446655, 0.502563, -0.754517, 2.136230, 4.577637, 4.699707
1539134, 0.467896, 0.508789, -0.756958, 3.112794, 2.441406, 5.249023
1539154, 0.445679, 0.484619, -0.766724, 2.807618, 4.577637, 2.990724
1539174, 0.444824, 0.471558, -0.761841, 1.098633, 3.356935, 2.075195
1539194, 0.457520, 0.476074, -0.747803, -0.854492, 8.117676, 1.953125
1539214, 0.466919, 0.485596, -0.741577, -0.915528, 10.375977, -0.427246
1539234, 0.494507, 0.494995, -0.738281, -0.305176, 8.483887, -0.549316
1539254, 0.499512, 0.491211, -0.733643, -0.305176, 5.676271, -0.915528
1539274, 0.489136, 0.496216, -0.746704, 0.183106, 2.929688, -0.976563
1539294, 0.486450, 0.508301, -0.749390, 0.366211, 0.183106, -0.427246
1539314, 0.465210, 0.505981, -0.746582, 1.159668, -0.305176, 0.915528
1539334, 0.469238, 0.496948, -0.749146, 1.586915, -0.366211, 0.854492
1539354, 0.479614, 0.496704, -0.743652, 1.708985, 0.671387, -0.732422
1539374, 0.446777, 0.488281, -0.731567, 2.441406, 6.408693, 1.281738
1539394, 0.485352, 0.478149, -0.745850, 0.976563, 9.704590, 3.356935
1539414, 0.511841, 0.483643, -0.745605, 0.854492, 1.586915, -0.244141
1539434, 0.479614, 0.494629, -0.749023, 0.976563, -1.708985, -2.563477
1539454, 0.499634, 0.483154, -0.729858, -0.183106, 0.366211, -0.854492
1539474, 0.500122, 0.485107, -0.716187, -0.610352, -0.671387, -1.647950
1539494, 0.489380, 0.500732, -0.730103, 0.366211, -0.244141, -1.342773
1539514, 0.484009, 0.487549, -0.743896, 0.000000, -0.305176, -1.342773
1539534, 0.476929, 0.491455, -0.744385, -0.732422, 0.488281, -1.708985
1539554, 0.485840, 0.492310, -0.738159, -0.305176, -0.305176, -2.441406
1539574, 0.479492, 0.501709, -0.747314, 0.549316, -0.549316, -1.342773
1539594, 0.480103, 0.503052, -0.748169, 0.732422, -0.610352, 0.366211
1539614, 0.462280, 0.487549, -0.727051, 0.061035, 4.699707, 1.892090
1539634, 0.509399, 0.495361, -0.732300, -0.183106, 3.967286, 0.793457
1539654, 0.508301, 0.495728, -0.736206, 0.488281, 0.000000, -1.037598
1539674, 0.486816, 0.486450, -0.735107, 0.183106, -0.427246, -1.098633
1539694, 0.493286, 0.478027, -0.732544, -0.671387, -0.122070, -1.220703
1539714, 0.489258, 0.481689, -0.730835, -1.342773, -0.488281, -2.502441
1539734, 0.489990, 0.478394, -0.732910, -2.197266, -0.427246, -3.051759
1539754, 0.489258, 0.490234, -0.732422, -3.662110, -0.732422, -3.173829
1539774, 0.483154, 0.518433, -0.736328, -2.990724, -0.671387, -2.197266
1539794, 0.479248, 0.536377, -0.742554, 1.098633, 0.305176, 0.488281
1539814, 0.481812, 0.503174, -0.733887, 1.831055, -0.061035, 1.098633
1539834, 0.483398, 0.484741, -0.731934, 0.793457, -0.610352, 0.122070
1539854, 0.489990, 0.492554, -0.735474, 0.610352, -0.488281, -0.427246
1539874, 0.493408, 0.487427, -0.729858, -0.061035, -0.122070, -0.244141
1539894, 0.495117, 0.500732, -0.723633, 0.061035, -0.305176, 0.244141
1539914, 0.488770, 0.501221, -0.730713, 1.159668, -0.366211, -0.244141
1539934, 0.481567, 0.500366, -0.738647, 0.854492, -0.732422, -0.244141
1539954, 0.485962, 0.504272, -0.734375, 0.915528, -1.281738, 0.488281
1539974, 0.488159, 0.493164, -0.732788, 0.793457, -0.915528, 0.488281
1539994, 0.487915, 0.487793, -0.731445, -0.122070, -0.671387, 0.976563
1540014, 0.482666, 0.499146, -0.737061, -0.366211, -0.976563, 0.122070
1540034, 0.481201, 0.493408, -0.737427, -0.061035, -1.281738, -0.793457
1540054, 0.481812, 0.498047, -0.736694, -0.610352, -1.586915, -1.159668
1540074, 0.478882, 0.510132, -0.738159, -0.854492, -2.014160, 0.000000
1540094, 0.463867, 0.503662, -0.734253, -0.305176, 0.366211, 1.159668
1540114, 0.476318, 0.493774, -0.729370, -0.366211, 5.920412, 2.685547
1540134, 0.500000, 0.500244, -0.730103, -0.366211, 5.920412, 1.831055
1540154, 0.514526, 0.511475, -0.725464, 0.610352, 2.868653, 1.037598
1540174, 0.495605, 0.486328, -0.724731, 0.976563, -2.197266, -0.793457
1540194, 0.498779, 0.477905, -0.727539, 0.000000, -0.305176, -0.244141
1540214, 0.500122, 0.495605, -0.729614, -0.427246, -1.098633, -0.732422
1540234, 0.486328, 0.492798, -0.732178, 0.244141, -0.366211, -0.915528
1540254, 0.486450, 0.493164, -0.733032, -0.488281, -0.793457, -1.342773
1540274, 0.486450, 0.503052, -0.735107, -0.732422, -1.342773, -1.098633
1540294, 0.486450, 0.507080, -0.736816, -0.122070, -1.220703, -0.732422
1540314, 0.490601, 0.493530, -0.728882, 0.366211, -1.525879, -0.915528
1540334, 0.490845, 0.492188, -0.730835, -0.183106, -1.831055, -1.464844
1540354, 0.489502, 0.502441, -0.727417, -0.305176, -1.647950, -0.732422
1540374, 0.495483, 0.506470, -0.720825, -0.183106, -0.366211, 0.671387
1540394, 0.498169, 0.509644, -0.725952, 0.122070, 0.061035, 0.732422
1540414, 0.502197, 0.507690, -0.725342, 1.403809, -2.014160, -0.488281
1540434, 0.486450, 0.487183, -0.734863, 1.525879, -1.159668, 0.366211
1540454, 0.487061, 0.491455, -0.737183, -0.122070, -1.098633, 0.061035
1540474, 0.489380, 0.505615, -0.734375, 0.671387, -0.244141, 0.061035
1540494, 0.486938, 0.505981, -0.735840, 1.281738, -0.732422, 0.244141
1540514, 0.481445, 0.496094, -0.730713, 0.732422, -0.793457, 0.305176
1540534, 0.484741, 0.498901, -0.730835, -0.122070, -0.488281, 0.549316
1540554, 0.496948, 0.514038, -0.718506, 0.854492, -1.647950, 0.854492
1540574, 0.485718, 0.499023, -0.730103, 1.159668, -1.464844, 1.831055
1540594, 0.491821, 0.489746, -0.734253, 0.061035, -1.098633, 1.159668
1540614, 0.488403, 0.494751, -0.732056, 0.366211, -1.403809, 0.732422
1540634, 0.488037, 0.491211, -0.734497, 0.122070, -1.403809, 0.976563
1540654, 0.486938, 0.486938, -0.733398, -0.061035, -1.708985, 0.122070
1540674, 0.486328, 0.481812, -0.737549, -0.732422, -1.159668, -0.915528
1540694, 0.491455, 0.492920, -0.734619, -1.708985, -0.976563, -1.770020
1540734, 0.493774, 0.517334, -0.726563, -0.244141, -1.220703, 0.793457
1540754, 0.487183, 0.489990, -0.727905, 0.671387, -1.159668, 0.000000
1540774, 0.488403, 0.492432, -0.737061, -0.427246, -1.037598, 0.000000
1540794, 0.493164, 0.501709, -0.731812, -0.427246, -0.549316, 0.610352
1540814, 0.491333, 0.498901, -0.726563, 0.122070, -0.915528, 0.366211
1540834, 0.489868, 0.497314, -0.727295, 0.183106, -0.915528, 0.122070
1540854, 0.490112, 0.505127, -0.728638, 0.305176, -1.037598, -0.122070
1540874, 0.487671, 0.510132, -0.733032, 0.793457, -0.915528, 0.427246
1540894, 0.489380, 0.493896, -0.730469, 0.976563, -0.854492, 0.427246
1540914, 0.485352, 0.483154, -0.733765, -0.244141, -0.976563, -0.305176
1540934, 0.490479, 0.506714, -0.730225, -0.366211, -0.915528, -0.549316
1540954, 0.485229, 0.499756, -0.729492, 0.427246, -1.037598, -0.549316
1540974, 0.489258, 0.490112, -0.733765, -0.549316, -0.671387, -0.671387
1540994, 0.491455, 0.507568, -0.729980, -1.037598, -0.793457, -0.671387
1541014, 0.493652, 0.507813, -0.724243, -0.122070, -0.366211, 0.488281
1541034, 0.489990, 0.499390, -0.726929, -0.244141, -0.915528, 0.732422
1541054, 0.488525, 0.502197, -0.730957, -0.061035, -0.732422, 0.976563
1541074, 0.487671, 0.491943, -0.733643, 0.305176, -0.854492, 0.122070
1541094, 0.485229, 0.490234, -0.736694, -0.366211, -0.305176, -0.549316
1541114, 0.488525, 0.501953, -0.731323, -0.488281, -0.122070, -0.488281
1541134, 0.488525, 0.516479, -0.723999, -0.793457, -0.671387, -0.122070
1541154, 0.490356, 0.512817, -0.717651, -0.366211, -1.403809, 0.793457
1541174, 0.493408, 0.505981, -0.726807, -0.305176, -1.708985, 1.708985
1541194, 0.491089, 0.491577, -0.732666, -0.305176, -1.342773, 2.075195
1541214, 0.481079, 0.473389, -0.740479, -0.305176, -1.586915, 0.305176
1541234, 0.468872, 0.476563, -0.746582, -1.525879, -0.732422, -2.502441
1541254, 0.482422, 0.500610, -0.735107, -3.051759, -0.183106, -4.028320
1541274, 0.455811, 0.532837, -0.722168, -2.258301, 0.976563, -1.831055
1541294, 0.492432, 0.531372, -0.722534, -1.342773, 7.995607, 3.723145
1541314, 0.509766, 0.495605, -0.702637, 0.122070, 4.760742, 1.342773
1541334, 0.526733, 0.496948, -0.723145, 0.122070, 0.549316, -0.305176
1541354, 0.491821, 0.514038, -0.726196, 0.244141, -1.281738, -1.159668
1541374, 0.489258, 0.507324, -0.729126, 1.892090, -0.793457, -0.915528
1541394, 0.483032, 0.481934, -0.735474, 1.037598, -0.305176, -1.831055
1541414, 0.494873, 0.492798, -0.728149, -0.183106, 0.183106, -2.807618
1541434, 0.503174, 0.514893, -0.722900, 0.915528, -1.159668, -2.929688
1541454, 0.493042, 0.508301, -0.725464, 1.159668, -0.427246, -1.098633
1541474, 0.496460, 0.500732, -0.716675, 0.000000, -0.366211, -0.549316
1541494, 0.493652, 0.508179, -0.717407, -0.122070, -0.427246, -1.037598
1541514, 0.494263, 0.516968, -0.726440, 0.549316, -0.305176, -0.610352
1541534, 0.488892, 0.512451, -0.725342, 0.671387, -0.732422, -0.122070
1541554, 0.490601, 0.509766, -0.724731, 0.732422, -0.793457, 0.366211
1541574, 0.494019, 0.500977, -0.722656, 0.366211, -0.915528, 0.366211
1541594, 0.492065, 0.504028, -0.722656, 0.305176, -0.854492, 0.122070
1541614, 0.491699, 0.504517, -0.725342, 0.122070, -0.305176, 0.061035
1541634, 0.494629, 0.505859, -0.720337, 0.366211, -0.610352, 0.061035
1541654, 0.496094, 0.508667, -0.723877, 0.793457, -0.671387, -0.305176
1541674, 0.492065, 0.497070, -0.721924, 0.488281, -0.610352, -0.427246
1541694, 0.495605, 0.500732, -0.724609, -0.366211, -0.427246, -1.037598
1541714, 0.488281, 0.509277, -0.726929, -0.122070, -0.427246, -1.159668
1541734, 0.490234, 0.510864, -0.727051, -0.122070, -0.488281, -1.098633
1541754, 0.489380, 0.515503, -0.722900, 0.000000, -0.183106, -0.549316
1541774, 0.497314, 0.508423, -0.718262, 0.366211, -0.488281, -0.244141
1541794, 0.492676, 0.502197, -0.719849, 0.061035, -0.854492, -0.610352
1541814, 0.491455, 0.509521, -0.725342, -0.061035, -0.915528, -0.244141
1541834, 0.490356, 0.509033, -0.727051, 0.305176, -0.793457, -0.183106
1541854, 0.489990, 0.501953, -0.724731, 0.061035, -0.549316, -0.244141
1541874, 0.494263, 0.509277, -0.723022, -0.122070, -0.732422, -0.549316
1541894, 0.494507, 0.508545, -0.718750, 0.671387, -0.976563, 0.122070
1541914, 0.490845, 0.499390, -0.720581, 0.244141, -1.037598, -0.244141
1541934, 0.491943, 0.508179, -0.723633, -0.061035, -0.732422, -0.732422
1541954, 0.492798, 0.515991, -0.727783, 0.366211, -0.976563, -0.488281
1541974, 0.490234, 0.504761, -0.721191, 0.610352, -0.732422, 0.061035
1541994, 0.490356, 0.499023, -0.722656, 0.000000, -0.793457, -0.793457
1542014, 0.490356, 0.511597, -0.726563, -0.366211, -0.915528, -0.549316
1542034, 0.493408, 0.509033, -0.723999, -0.183106, -0.976563, -0.183106
1542054, 0.492432, 0.507568, -0.719727, -0.366211, -1.220703, -0.183106
1542074, 0.490723, 0.511841, -0.723633, 0.183106, -1.159668, -0.549316
1542094, 0.490723, 0.510620, -0.726685, 0.183106, -0.732422, -0.061035
1542114, 0.491211, 0.502930, -0.720581, -0.061035, -0.732422, -0.244141
1542134, 0.490601, 0.503540, -0.720947, -0.671387, -0.732422, -0.854492
1542154, 0.493042, 0.517578, -0.721313, 0.061035, -1.037598, -1.037598
1542174, 0.486572, 0.510742, -0.727539, 0.366211, -0.854492, -0.244141
1542194, 0.492188, 0.506714, -0.722778, -0.183106, -0.976563, -0.976563
1542214, 0.486572, 0.506836, -0.720703, 0.366211, -1.098633, -1.403809
1542234, 0.491699, 0.510620, -0.726074, -0.244141, -0.915528, -1.281738
1542254, 0.487427, 0.513794, -0.721802, 0.000000, -0.915528, -0.976563
1542274, 0.490601, 0.517212, -0.723145, 0.183106, -0.854492, -0.061035
1542294, 0.491943, 0.515259, -0.719116, 0.305176, -0.915528, 0.244141
1542314, 0.491821, 0.512207, -0.716797, 0.915528, -0.732422, 0.183106
1542334, 0.487305, 0.512085, -0.725586, 1.159668, -1.037598, 0.061035
1542354, 0.486694, 0.508057, -0.727661, 0.671387, -0.549316, 0.366211
1542374, 0.488403, 0.506714, -0.721191, 0.427246, -0.915528, 0.000000
1542394, 0.487793, 0.511108, -0.725098, 0.610352, -0.671387, -0.183106
1542414, 0.491333, 0.511963, -0.723755, 0.671387, -0.854492, -0.244141
1542434, 0.489014, 0.509155, -0.720825, 0.793457, -0.854492, -0.244141
1542454, 0.489990, 0.512939, -0.724487, 0.610352, -0.854492, -0.732422
1542474, 0.493774, 0.509521, -0.723877, 0.671387, -1.220703, -0.244141
1542494, 0.488281, 0.506104, -0.721802, 0.488281, -0.732422, 0.183106
1542514, 0.490356, 0.505371, -0.722534, 0.183106, -0.915528, -0.244141
1542534, 0.484619, 0.512939, -0.726563, 0.366211, -0.732422, -0.244141
1542554, 0.487427, 0.508545, -0.727051, 0.244141, -0.793457, -0.183106
1542574, 0.489380, 0.510986, -0.722534, -0.061035, -0.732422, 0.000000
1542594, 0.491821, 0.508911, -0.719360, 0.671387, -0.976563, -0.305176
1542614, 0.485840, 0.503296, -0.725830, 0.122070, -0.610352, -0.427246
1542634, 0.488159, 0.509399, -0.723022, -0.305176, -0.549316, -0.671387
1542654, 0.484985, 0.516968, -0.726685, 0.244141, -0.732422, -0.305176
1542674, 0.491577, 0.518066, -0.721558, 0.549316, -0.671387, 0.305176
1542694, 0.489258, 0.510864, -0.720703, 0.732422, -0.915528, 0.488281
1542714, 0.489868, 0.504639, -0.721802, 0.549316, -1.037598, 0.244141
1542734, 0.487793, 0.504761, -0.725586, 0.366211, -0.915528, -0.122070
1542754, 0.487793, 0.512207, -0.724609, 0.610352, -0.671387, -0.549316
1542774, 0.483765, 0.506714, -0.728149, 0.549316, -0.732422, -0.427246
1542794, 0.487549, 0.507202, -0.726807, -0.549316, -0.427246, -0.244141
1542814, 0.490234, 0.515991, -0.720093, -0.061035, -0.793457, -0.061035
1542834, 0.490234, 0.510620, -0.721558, 0.549316, -0.610352, 0.061035
1542854, 0.487061, 0.509277, -0.719482, 0.427246, -0.793457, -0.061035
1542874, 0.486816, 0.520020, -0.727295, 0.671387, -0.854492, 0.244141
1542894, 0.486694, 0.512939, -0.725830, 0.976563, -0.671387, 0.610352
1542914, 0.486572, 0.501221, -0.722900, 0.793457, -0.793457, 0.122070
1542934, 0.487671, 0.498535, -0.722900, 0.366211, -0.854492, -0.854492
1542954, 0.487427, 0.509155, -0.729858, -0.183106, -0.732422, -0.976563
1542974, 0.488892, 0.521240, -0.723999, 0.000000, -0.854492, -0.244141
1542994, 0.490356, 0.513062, -0.719482, 0.854492, -1.037598, 0.122070
1543014, 0.489380, 0.503052, -0.721924, 0.366211, -0.793457, 0.122070
1543034, 0.485962, 0.513184, -0.724976, 0.366211, -0.671387, -0.183106
1543054, 0.489380, 0.517212, -0.724365, 0.549316, -0.549316, 0.427246
1543074, 0.487671, 0.506470, -0.721680, 0.915528, -0.793457, 0.122070
1543094, 0.488281, 0.504517, -0.724365, 0.549316, -0.915528, -0.427246
1543114, 0.485718, 0.508667, -0.725220, 0.549316, -0.671387, -0.854492
1543134, 0.487427, 0.509033, -0.728027, 0.366211, -0.549316, -0.732422
1543154, 0.486084, 0.514160, -0.725220, 0.427246, -0.427246, -0.549316
1543174, 0.485229, 0.506226, -0.724854, 0.488281, -0.915528, -0.610352
1543194, 0.488647, 0.514771, -0.725830, -0.061035, -0.549316, -0.366211
1543214, 0.488403, 0.514526, -0.722046, 0.915528, -0.854492, 0.122070
1543234, 0.489990, 0.509399, -0.724609, 0.854492, -0.732422, 0.610352
1543254, 0.488281, 0.505859, -0.721069, 0.610352, -0.549316, 0.549316
1543274, 0.487915, 0.507690, -0.724976, 0.488281, -0.671387, 0.366211
1543294, 0.482666, 0.509399, -0.730591, 0.366211, -0.610352, 0.488281
1543314, 0.486816, 0.505493, -0.726807, 0.061035, -0.549316, -0.122070
1543334, 0.485596, 0.511108, -0.723389, 0.061035, -0.732422, -0.732422
1543354, 0.492065, 0.515137, -0.722778, 0.610352, -0.854492, -0.061035
1543374, 0.488892, 0.512817, -0.724121, 0.915528, -1.098633, 0.671387
1543394, 0.490356, 0.496948, -0.719604, 0.671387, -0.488281, -0.366211
1543414, 0.487305, 0.509766, -0.728149, -0.122070, -0.305176, -1.037598
1543434, 0.485840, 0.520630, -0.729004, 0.366211, -0.549316, -0.610352
1543454, 0.483521, 0.514038, -0.727783, 0.915528, -0.549316, 0.488281
1543474, 0.490601, 0.507813, -0.719238, 0.549316, -0.610352, 0.427246
1543494, 0.491211, 0.504639, -0.718384, 0.793457, -0.793457, 0.122070
1543514, 0.488647, 0.501953, -0.727539, 0.305176, -0.366211, -0.183106
1543534, 0.486084, 0.510132, -0.725464, 0.061035, -0.305176, -0.488281
1543554, 0.488403, 0.516357, -0.725464, 0.427246, -0.671387, -0.061035
1543574, 0.484741, 0.510498, -0.725708, 0.549316, -0.549316, 0.244141
1543594, 0.489136, 0.509033, -0.724731, 0.366211, -0.427246, -0.366211
1543614, 0.487915, 0.510376, -0.723511, 0.610352, -0.610352, -0.427246
1543634, 0.490845, 0.510864, -0.721802, 0.854492, -0.488281, -0.305176
1543654, 0.488159, 0.508057, -0.723755, 0.610352, -0.671387, -0.305176
1543674, 0.485718, 0.506714, -0.724976, 0.488281, -0.366211, -0.549316
1543694, 0.486450, 0.508301, -0.727783, 0.427246, -0.610352, -0.854492
1543714, 0.486206, 0.513184, -0.728149, 0.366211, -0.732422, -0.427246
1543734, 0.484985, 0.512207, -0.724609, 0.244141, -0.915528, -0.183106
1543754, 0.489990, 0.519287, -0.724365, 0.854492, -0.732422, 0.244141
1543774, 0.489258, 0.507324, -0.722778, 1.281738, -0.549316, 0.610352
1543794, 0.493164, 0.503906, -0.722290, 0.549316, -0.488281, 0.000000
1543814, 0.486694, 0.507202, -0.726318, 0.854492, -0.671387, -0.244141
1543834, 0.486450, 0.506592, -0.730591, 0.732422, -0.671387, -0.122070
1543854, 0.487183, 0.508545, -0.725586, 0.610352, -0.610352, -0.244141
1543874, 0.489380, 0.505005, -0.723022, 0.793457, -0.427246, -0.366211
1543894, 0.487183, 0.505981, -0.724854, 0.305176, -0.244141, -0.915528
1543914, 0.492676, 0.510254, -0.721069, 0.366211, -0.183106, -0.671387
1543934, 0.490479, 0.517700, -0.724609, 0.549316, -0.732422, -0.244141
1543954, 0.489258, 0.516357, -0.724609, 1.159668, -0.854492, 0.427246
1543974, 0.485840, 0.503540, -0.725708, 0.854492, -0.915528, 0.000000
1543994, 0.489380, 0.501831, -0.725098, 0.732422, -0.671387, -0.305176
1544014, 0.485962, 0.499634, -0.728760, 0.305176, -0.671387, -0.488281
1544034, 0.487549, 0.508423, -0.727661, -0.122070, -0.244141, -0.244141
1544054, 0.485596, 0.513550, -0.725830, 0.488281, -0.671387, -0.305176
1544074, 0.485107, 0.508179, -0.730225, 0.427246, -0.732422, -0.122070
1544094, 0.484985, 0.509766, -0.728638, 0.305176, -0.854492, 0.061035
1544114, 0.489014, 0.510376, -0.727905, 0.244141, -0.793457, 0.305176
1544134, 0.483887, 0.512573, -0.722778, 0.183106, -0.976563, 0.793457
1544154, 0.485962, 0.508057, -0.726440, 0.183106, -0.854492, 0.366211
1544174, 0.490479, 0.507324, -0.726196, 0.183106, -0.915528, 0.061035
1544194, 0.490723, 0.505615, -0.723511, 0.366211, -0.976563, 0.366211
1544214, 0.489990, 0.500732, -0.724731, -0.061035, -1.037598, 0.244141
1544234, 0.487915, 0.499878, -0.727295, 0.000000, -0.671387, -0.427246
1544254, 0.487549, 0.500854, -0.730347, 0.061035, -0.610352, -1.037598
1544274, 0.486206, 0.513916, -0.730225, -0.183106, -0.549316, -0.976563
1544294, 0.488281, 0.509644, -0.720947, 0.366211, -0.366211, -0.549316
1544314, 0.490234, 0.510986, -0.723022, 0.000000, -0.427246, -0.427246
1544334, 0.494873, 0.521484, -0.716553, 0.366211, -0.305176, 0.305176
1544354, 0.487671, 0.520020, -0.720459, 0.854492, -0.854492, 1.647950
1544374, 0.487671, 0.511353, -0.719849, 0.549316, -1.281738, 1.647950
1544394, 0.484619, 0.509399, -0.731689, 0.732422, -1.525879, 1.464844
1544414, 0.480591, 0.493286, -0.736084, 0.488281, -1.159668, 1.403809
1544434, 0.479736, 0.493164, -0.735596, 0.122070, -0.915528, 0.488281
1544454, 0.479248, 0.493774, -0.732422, 0.061035, -0.732422, -1.037598
1544474, 0.487671, 0.507568, -0.724121, -0.732422, -0.732422, -1.586915
1544494, 0.498169, 0.520508, -0.721558, -0.366211, -2.319336, -1.220703
1544514, 0.486450, 0.517822, -0.725220, 0.427246, -1.831055, 0.305176
1544534, 0.491333, 0.503540, -0.722046, 0.061035, -1.586915, 0.183106
1544554, 0.491577, 0.507446, -0.720581, -0.122070, -1.281738, 0.305176
1544574, 0.487671, 0.506836, -0.727661, 0.427246, -1.037598, 0.000000
1544594, 0.488647, 0.490967, -0.726440, 0.122070, -0.427246, -0.854492
1544614, 0.486694, 0.498657, -0.729980, -0.366211, -0.549316, -1.464844
1544634, 0.485229, 0.510376, -0.732300, -0.061035, 0.000000, -1.586915
1544654, 0.486816, 0.508301, -0.721436, 0.061035, -0.061035, -1.953125
1544674, 0.488770, 0.516113, -0.722046, 0.183106, -0.305176, -1.892090
1544694, 0.488159, 0.522949, -0.722168, 0.427246, -0.183106, -1.159668
1544714, 0.496094, 0.517578, -0.714844, 0.610352, -0.183106, -0.244141
1544734, 0.487305, 0.512573, -0.721191, 0.610352, -0.305176, 0.854492
1544754, 0.479736, 0.504761, -0.731689, 0.305176, -0.610352, 0.671387
1544774, 0.478882, 0.503174, -0.735107, 0.061035, -0.549316, -0.061035
1544794, 0.476929, 0.504639, -0.736816, -0.061035, -0.915528, -1.098633
1544814, 0.478271, 0.510620, -0.733032, -0.366211, -0.976563, -1.464844
1544834, 0.485718, 0.511108, -0.724243, -0.183106, -1.342773, -1.220703
1544854, 0.490845, 0.504272, -0.722900, -0.671387, -1.037598, -0.976563
1544874, 0.494263, 0.513184, -0.718994, -0.488281, -0.854492, -0.732422
1544894, 0.491211, 0.513672, -0.718750, 0.488281, -0.854492, -0.610352
1544914, 0.485962, 0.516846, -0.724976, 0.366211, -0.732422, -0.427246
1544934, 0.486816, 0.516357, -0.719482, 0.671387, -0.671387, -0.305176
1544954, 0.484619, 0.512329, -0.723633, 0.183106, -0.671387, 0.000000
1544974, 0.486572, 0.517212, -0.722412, 0.000000, -0.549316, 0.427246
1544994, 0.487671, 0.521851, -0.723999, 0.854492, -0.488281, 0.671387
1545014, 0.486938, 0.501587, -0.723755, 0.976563, -0.732422, 0.976563
1545034, 0.481812, 0.501221, -0.728882, 0.122070, -0.671387, 0.244141
1545054, 0.480347, 0.504883, -0.731201, 0.183106, -0.793457, -0.366211
1545074, 0.478149, 0.508301, -0.734009, -0.122070, -0.915528, -0.671387
1545094, 0.483398, 0.510254, -0.727051, -0.366211, -0.915528, -0.793457
1545114, 0.490112, 0.516602, -0.718628, 0.122070, -0.976563, -0.793457
1545134, 0.487183, 0.516724, -0.719971, 0.183106, -0.671387, -0.488281
1545154, 0.488403, 0.519531, -0.719727, 0.366211, -0.610352, 0.183106
1545174, 0.485596, 0.513428, -0.721924, 0.854492, -0.732422, 0.427246
1545194, 0.483276, 0.507690, -0.728394, 0.366211, -0.366211, 0.427246
1545214, 0.484009, 0.509155, -0.726807, 0.488281, -0.488281, -0.122070
1545234, 0.482544, 0.509399, -0.731323, 0.793457, -0.732422, -0.671387
1545254, 0.483887, 0.510620, -0.726929, 0.549316, -0.671387, -0.732422
1545274, 0.488525, 0.518921, -0.720703, 0.671387, -0.671387, -0.610352
1545294, 0.489990, 0.516846, -0.720093, 0.854492, -0.732422, 0.671387
1545314, 0.486084, 0.505493, -0.721313, 0.732422, -0.366211, 0.732422
1545334, 0.484131, 0.501831, -0.725342, 0.244141, -0.549316, -0.061035
1545354, 0.480591, 0.510986, -0.730103, 0.000000, -0.732422, -0.427246
1545374, 0.481689, 0.516113, -0.732422, 0.061035, -0.976563, -0.427246
1545394, 0.482056, 0.514038, -0.728882, 0.122070, -1.098633, 0.122070
1545414, 0.487671, 0.505005, -0.722900, -0.183106, -0.854492, 0.000000
1545434, 0.490845, 0.506104, -0.718994, -0.122070, -0.854492, -0.549316
1545454, 0.486206, 0.515503, -0.722168, -0.244141, -0.854492, -0.244141
1545474, 0.488159, 0.526855, -0.723145, 0.244141, -0.732422, 0.732422
1545494, 0.482056, 0.507568, -0.724365, 0.793457, -0.671387, 0.976563
1545514, 0.484497, 0.503662, -0.724487, 0.244141, -0.976563, -0.061035
1545534, 0.484375, 0.513062, -0.727539, -0.061035, -0.549316, 0.061035
1545554, 0.485107, 0.513672, -0.723999, 0.305176, -0.671387, 0.549316
1545574, 0.485352, 0.508545, -0.726685, 0.488281, -0.854492, 0.244141
1545594, 0.483887, 0.509277, -0.725586, 0.366211, -0.671387, -0.305176
1545614, 0.485596, 0.510010, -0.725830, 0.427246, -0.488281, -0.549316
1545634, 0.484985, 0.511353, -0.723389, 0.488281, -0.488281, -0.671387
1545654, 0.485962, 0.508179, -0.724487, 0.427246, -0.488281, -0.427246
1545674, 0.487061, 0.517212, -0.725830, 0.427246, -0.366211, -0.366211
1545694, 0.487305, 0.510864, -0.718994, 0.976563, -0.854492, -0.366211
1545714, 0.482910, 0.513428, -0.727417, 0.915528, -0.671387, -0.183106
1545734, 0.486938, 0.510620, -0.724487, 0.854492, -0.549316, -0.183106
1545754, 0.483276, 0.509277, -0.726440, 1.037598, -0.488281, -0.244141
1545774, 0.481079, 0.507080, -0.727295, 0.549316, -0.366211, -0.122070
1545794, 0.489014, 0.513550, -0.725342, 0.488281, -0.427246, -0.305176
1545814, 0.481934, 0.506836, -0.724365, 1.037598, -0.549316, -0.366211
1545854, 0.487061, 0.514404, -0.723633, 0.427246, -0.366211, -0.427246
1545874, 0.485718, 0.513306, -0.722900, 0.488281, -0.427246, 0.122070
1545894, 0.485352, 0.517090, -0.721191, 0.549316, -0.488281, 0.000000
1545914, 0.488770, 0.516602, -0.724487, 0.793457, -0.549316, 0.305176
1545934, 0.486572, 0.512817, -0.725708, 0.915528, -0.427246, 0.488281
1545954, 0.486084, 0.506592, -0.723145, 0.854492, -0.732422, 0.427246
1545974, 0.485107, 0.503784, -0.724609, 0.366211, -0.427246, 0.244141
1545994, 0.484619, 0.509033, -0.726440, 0.122070, -0.671387, -0.061035
1546014, 0.486328, 0.512451, -0.729248, 0.549316, -0.488281, 0.305176
1546034, 0.487549, 0.509277, -0.725098, 0.427246, -0.610352, 0.305176
1546054, 0.489502, 0.508057, -0.719238, 0.427246, -0.732422, 0.305176
1546074, 0.483398, 0.512085, -0.728149, 0.610352, -0.610352, 0.488281
1546094, 0.486084, 0.508301, -0.726563, 0.549316, -0.610352, 0.610352
1546114, 0.489014, 0.505127, -0.723145, 0.549316, -0.488281, 0.366211
1546134, 0.486694, 0.507324, -0.725586, 0.366211, -0.732422, -0.061035
1546154, 0.484741, 0.514404, -0.727051, 0.549316, -0.732422, -0.061035
1546174, 0.486450, 0.507568, -0.725708, 0.976563, -0.793457, 0.122070
1546194, 0.488770, 0.507446, -0.725708, 0.854492, -0.854492, -0.122070
1546214, 0.486206, 0.506470, -0.724609, 0.671387, -0.549316, -0.122070
1546234, 0.489502, 0.509033, -0.723267, 0.488281, -0.366211, -0.305176
1546254, 0.487427, 0.509155, -0.725586, 0.976563, -0.610352, -0.244141
1546274, 0.483643, 0.514771, -0.731323, 0.915528, -0.793457, 0.122070
1546294, 0.480957, 0.506470, -0.728271, 1.037598, -0.610352, 0.122070
1546314, 0.484985, 0.501587, -0.726807, 0.732422, -0.488281, -0.488281
1546334, 0.489258, 0.510620, -0.725098, 1.098633, -0.244141, -0.732422
1546354, 0.496460, 0.509644, -0.721069, 1.403809, -0.427246, -0.488281
1546374, 0.484497, 0.506226, -0.726563, 1.342773, -0.671387, -0.244141
1546394, 0.486816, 0.504517, -0.726563, 0.854492, -0.366211, -0.061035
1546414, 0.484863, 0.513794, -0.727661, 0.976563, -0.732422, -0.183106
1546434, 0.486572, 0.518555, -0.730103, 1.464844, -1.159668, 1.098633
1546454, 0.483154, 0.495728, -0.727783, 1.098633, -1.098633, 1.037598
1546474, 0.482910, 0.497314, -0.733154, 0.305176, -0.915528, 0.000000
1546494, 0.483765, 0.515015, -0.732422, 0.366211, -0.488281, 0.122070
1546514, 0.489258, 0.523315, -0.721924, 0.854492, -0.854492, 0.976563
1546534, 0.486328, 0.515381, -0.720459, 1.342773, -1.708985, 1.831055
1546554, 0.483276, 0.495850, -0.730835, 1.281738, -1.708985, 1.525879
1546574, 0.487549, 0.486328, -0.732422, 0.488281, -0.915528, 0.366211
1546594, 0.492188, 0.497803, -0.728882, 0.366211, -1.098633, 0.122070
1546614, 0.490723, 0.502930, -0.728760, 0.549316, -1.037598, 0.244141
1546634, 0.490356, 0.490479, -0.725586, 0.244141, -0.671387, -0.244141
1546654, 0.494263, 0.496460, -0.729858, -0.122070, -0.183106, -0.732422
1546674, 0.505493, 0.512573, -0.719604, 1.586915, -0.671387, -1.220703
1546694, 0.487915, 0.489746, -0.729370, 1.464844, 0.122070, -1.037598
1546714, 0.497192, 0.500366, -0.727295, 0.183106, 0.732422, -0.427246
1546734, 0.487671, 0.510620, -0.719604, 1.098633, 0.305176, -0.976563
1546754, 0.484619, 0.516357, -0.729248, 0.793457, 0.122070, -0.976563
1546774, 0.484131, 0.523804, -0.724731, 0.549316, -0.122070, 0.305176
1546794, 0.490967, 0.520142, -0.723999, 1.464844, -0.305176, 1.220703
1546814, 0.486450, 0.511108, -0.726196, 1.831055, -1.647950, 1.098633
1546834, 0.474487, 0.494873, -0.733643, 1.647950, -1.281738, 0.061035
1546854, 0.486328, 0.484253, -0.735352, 0.549316, -1.342773, -0.915528
1546874, 0.531372, 0.504272, -0.731689, 0.305176, -7.080080, -3.356935
1546894, 0.454346, 0.516479, -0.731934, 1.464844, -7.141115, -1.647950
1546914, 0.481689, 0.505371, -0.744873, 1.281738, -6.408693, -0.488281
1546934, 0.438599, 0.488892, -0.743652, 1.098633, -3.601075, -1.220703
1546954, 0.477539, 0.489868, -0.747192, -0.366211, 0.244141, -0.488281
1546974, 0.490845, 0.504028, -0.729126, -0.488281, -0.915528, -0.671387
1546994, 0.497070, 0.494019, -0.720947, 0.366211, -0.793457, -0.183106
1547014, 0.488037, 0.496094, -0.727661, -0.610352, -0.793457, -1.098633
1547034, 0.482666, 0.513306, -0.736084, -0.061035, -0.427246, -0.610352
1547054, 0.473145, 0.508545, -0.737915, 0.244141, -0.488281, -0.488281
1547074, 0.470459, 0.513916, -0.736206, 0.000000, -0.061035, -0.366211
1547094, 0.485352, 0.512573, -0.727783, -0.122070, 0.183106, -0.183106
1547114, 0.489258, 0.518555, -0.718384, 0.000000, -0.366211, 0.671387
1547134, 0.486816, 0.516113, -0.724731, 0.915528, -1.159668, 1.281738
1547154, 0.477173, 0.505371, -0.736328, 1.342773, -1.281738, 1.220703
1547174, 0.475586, 0.487427, -0.740234, 0.915528, -0.915528, 0.366211
1547194, 0.474121, 0.488647, -0.742554, -0.183106, -0.854492, -1.159668
1547214, 0.477051, 0.505371, -0.740112, -0.366211, -0.854492, -1.281738
1547234, 0.481445, 0.515869, -0.732788, 0.000000, -0.671387, -0.671387
1547254, 0.486084, 0.513916, -0.722778, 0.305176, -0.976563, -0.183106
1547274, 0.483887, 0.509399, -0.725952, 0.366211, -1.403809, 0.061035
1547294, 0.483643, 0.499512, -0.734497, 0.549316, -1.403809, 0.244141
1547314, 0.481812, 0.488525, -0.737793, 0.244141, -1.037598, -0.427246
1547334, 0.479126, 0.498535, -0.739258, -0.061035, -0.793457, -1.037598
1547354, 0.476685, 0.507568, -0.736938, 0.244141, -0.671387, -0.610352
1547374, 0.477173, 0.501709, -0.732544, -0.061035, -0.854492, -0.854492
1547394, 0.484619, 0.498169, -0.729614, -0.183106, -0.366211, -1.586915
1547414, 0.485840, 0.505615, -0.731445, -0.305176, -0.549316, -1.342773
1547434, 0.486938, 0.508301, -0.730103, 0.244141, -0.244141, -0.549316
1547454, 0.482178, 0.502930, -0.729614, 0.122070, -0.244141, -0.305176
1547474, 0.481812, 0.517456, -0.728271, -0.488281, 0.122070, -0.061035
1547494, 0.481201, 0.523438, -0.728271, 0.366211, -0.061035, 0.915528
1547514, 0.472778, 0.521362, -0.734985, 0.854492, -0.915528, 1.342773
1547534, 0.472656, 0.501343, -0.733521, 0.671387, -1.037598, 1.342773
1547554, 0.472900, 0.503418, -0.739868, 0.366211, -1.159668, 0.549316
1547574, 0.480103, 0.497803, -0.734375, 0.488281, -0.976563, -0.061035
1547594, 0.484253, 0.507324, -0.734619, 0.183106, -0.793457, 0.122070
1547614, 0.480957, 0.508301, -0.729004, 0.610352, -1.525879, 0.183106
1547634, 0.481689, 0.504272, -0.733643, 0.610352, -1.281738, 0.366211
1547654, 0.480469, 0.499023, -0.730835, 0.610352, -1.403809, -0.549316
1547674, 0.482666, 0.496338, -0.733154, 0.610352, -1.098633, -0.854492
1547694, 0.485229, 0.497681, -0.737915, 0.366211, -0.610352, -0.549316
1547714, 0.488159, 0.491699, -0.727783, 0.305176, 0.000000, -0.366211
1547734, 0.481934, 0.494751, -0.732056, 0.183106, -0.122070, -1.525879
1547754, 0.477905, 0.512817, -0.736938, 0.061035, 0.122070, -1.159668
1547774, 0.478149, 0.520142, -0.729370, 0.488281, 0.244141, 0.000000
1547794, 0.477661, 0.523926, -0.723145, 0.183106, -0.122070, 0.366211
1547814, 0.482910, 0.521973, -0.725830, 1.220703, -0.915528, 0.854492
1547834, 0.485596, 0.509155, -0.732910, 1.464844, -1.037598, 1.892090
1547854, 0.477905, 0.496216, -0.733765, 1.342773, -1.220703, 1.831055
1547874, 0.473389, 0.482910, -0.739258, 0.305176, -0.915528, 1.159668
1547895, 0.482422, 0.506470, -0.738403, -1.586915, 0.122070, 1.586915
1547915, 0.487549, 0.521240, -0.724121, 0.061035, -1.464844, 1.770020
1547935, 0.467407, 0.499390, -0.775879, 0.671387, -1.403809, 0.976563
1547955, 0.470825, 0.479492, -0.739746, -0.061035, -0.488281, -0.915528
1547975, 0.487305, 0.479736, -0.736084, 0.000000, -0.122070, -2.502441
1547995, 0.490845, 0.502686, -0.735352, -0.122070, 0.183106, -2.746582
1548015, 0.492310, 0.513428, -0.725708, 0.854492, 0.061035, -1.953125
1548035, 0.486328, 0.520508, -0.722534, 1.220703, 0.305176, -1.037598
1548055, 0.492554, 0.516113, -0.714722, 1.403809, 0.427246, -0.549316
1548075, 0.490723, 0.514771, -0.720703, 1.892090, 0.000000, -0.427246
1548095, 0.481567, 0.511108, -0.732910, 2.258301, -0.488281, 0.122070
1548115, 0.471313, 0.500000, -0.744019, 2.258301, -0.610352, 0.061035
1548135, 0.468018, 0.499512, -0.745117, 1.464844, -0.854492, -0.488281
1548155, 0.468628, 0.498291, -0.745483, 1.098633, -0.793457, -0.122070
1548175, 0.477539, 0.499756, -0.739624, 0.183106, -0.244141, -0.122070
1548195, 0.486572, 0.507080, -0.725342, 0.427246, -0.549316, -0.183106
1548215, 0.481445, 0.512939, -0.730469, 0.854492, -0.976563, -0.488281
1548235, 0.486938, 0.509399, -0.729248, 1.098633, -0.793457, 0.366211
1548255, 0.488770, 0.503906, -0.726563, 2.075195, -1.037598, 0.427246
1548275, 0.484375, 0.489624, -0.733398, 2.014160, -0.854492, -0.183106
1548295, 0.484741, 0.490601, -0.729736, 1.708985, -0.427246, -1.098633
1548315, 0.490112, 0.494751, -0.724121, 2.075195, 0.061035, -2.929688
1548335, 0.497437, 0.507568, -0.716064, 2.685547, 0.732422, -3.540040
1548355, 0.513550, 0.494629, -0.710693, 3.967286, 0.671387, -4.272461
1548375, 0.549316, 0.489380, -0.730347, 4.333496, -5.981447, -5.737307
1548395, 0.505737, 0.496094, -0.745728, 5.493164, -16.601563, -10.070801
1548415, 0.463501, 0.476807, -0.760376, 5.737307, -19.897461, -11.779789
1548435, 0.404541, 0.493408, -0.770508, 3.723145, -13.305668, -10.070801
1548455, 0.415283, 0.514038, -0.767822, 3.356935, -4.882813, -5.920412
1548475, 0.391846, 0.509277, -0.769165, 2.990724, -0.732422, -3.967286
1548495, 0.444336, 0.505859, -0.758667, 0.915528, 1.831055, -3.784181
1548515, 0.457031, 0.524536, -0.743774, 0.915528, -0.305176, -3.112794
1548535, 0.467285, 0.532837, -0.745361, 1.403809, -1.892090, -0.305176
1548555, 0.457520, 0.510620, -0.733643, 2.258301, -2.197266, 0.732422
1548575, 0.465088, 0.497192, -0.749878, 1.953125, -3.662110, -0.427246
1548595, 0.461670, 0.501953, -0.761841, 1.586915, -7.080080, -1.647950
1548615, 0.426147, 0.503418, -0.767456, 1.953125, -6.713869, -0.976563
1548635, 0.415771, 0.487305, -0.767090, 1.037598, -2.258301, 0.000000
1548655, 0.445190, 0.495850, -0.756714, -0.549316, -0.549316, -0.488281
1548675, 0.457642, 0.512085, -0.749756, 0.061035, -0.732422, -0.549316
1548695, 0.464111, 0.507202, -0.743896, 0.488281, -1.403809, 0.610352
1548715, 0.464600, 0.497314, -0.741699, 0.366211, -0.976563, 0.915528
1548735, 0.447754, 0.495605, -0.759033, 0.854492, -1.220703, 0.610352
1548755, 0.448486, 0.478638, -0.770752, 1.098633, -0.793457, -0.427246
1548775, 0.439941, 0.473877, -0.774170, 0.366211, 0.000000, -1.525879
1548795, 0.446045, 0.496948, -0.766724, -0.305176, 0.671387, -1.708985
1548815, 0.448608, 0.513550, -0.755127, 0.366211, 0.305176, -1.098633
1548835, 0.445190, 0.507080, -0.749878, 0.305176, -0.183106, -0.915528
1548855, 0.441528, 0.510864, -0.750977, -0.061035, -0.366211, -1.708985
1548875, 0.443237, 0.513062, -0.754517, 0.244141, -0.366211, -1.647950
1548895, 0.460083, 0.493896, -0.751709, 0.183106, -0.244141, -1.464844
1548915, 0.456055, 0.501587, -0.748901, 0.427246, -0.305176, -1.892090
1548935, 0.451904, 0.522217, -0.750854, 0.549316, -0.244141, -0.732422
1548955, 0.455933, 0.534912, -0.742676, 1.098633, -0.427246, 1.892090
1548975, 0.465088, 0.517334, -0.730469, 1.831055, -0.793457, 3.540040
1548995, 0.478027, 0.506104, -0.728760, 1.403809, -0.915528, 4.882813
1549015, 0.483276, 0.507813, -0.734619, 0.976563, -1.342773, 6.835939
1549035, 0.485229, 0.511108, -0.742676, 1.098633, -1.708985, 9.094238
1549055, 0.546509, 0.521362, -0.752686, 3.112794, -17.089844, 4.882813
1549075, 0.415283, 0.492554, -0.788940, 5.859377, -29.296883, 0.183106
1549095, 0.344360, 0.451782, -0.807251, 3.540040, -24.292000, -2.380371
1549115, 0.295044, 0.445313, -0.813599, 1.647950, -9.521484, -3.417970
1549135, 0.354736, 0.456909, -0.822754, -1.159668, 2.258301, -3.356935
1549155, 0.405273, 0.486572, -0.801514, -2.868653, 1.403809, -6.408693
1549175, 0.386475, 0.496948, -0.770264, -1.892090, 5.615236, -5.493164
1549195, 0.434692, 0.498291, -0.759644, -2.929688, 12.878422, -1.770020
1549215, 0.491577, 0.519287, -0.731934, -2.929688, 12.878422, -0.183106
1549235, 0.510498, 0.529907, -0.728271, -0.488281, 3.662110, -0.061035
1549255, 0.447021, 0.523560, -0.752075, 0.366211, -3.601075, -0.305176
1549275, 0.417236, 0.488159, -0.780396, 0.244141, -1.159668, -0.183106
1549295, 0.425903, 0.484497, -0.781494, -0.915528, -1.464844, -1.892090
1549315, 0.428833, 0.501953, -0.767578, -0.793457, -1.647950, -2.502441
1549335, 0.419922, 0.501221, -0.763184, -0.183106, -0.488281, -2.136230
1549355, 0.420166, 0.490723, -0.760010, -0.793457, 6.591799, 0.122070
1549375, 0.465576, 0.496460, -0.759277, -0.976563, 5.187988, -1.708985
1549395, 0.464844, 0.502686, -0.762695, 0.244141, -0.976563, -3.723145
1549415, 0.423584, 0.503174, -0.770142, 0.671387, -1.525879, -3.662110
1549435, 0.435913, 0.512207, -0.760864, -0.854492, -0.915528, -2.075195
1549455, 0.428955, 0.522339, -0.759155, 0.305176, -1.770020, -1.403809
1549475, 0.432617, 0.508545, -0.760986, 0.000000, -1.342773, -1.037598
1549495, 0.437134, 0.491455, -0.752319, 0.061035, -0.793457, -1.586915
1549515, 0.434204, 0.493042, -0.766724, -0.122070, 0.671387, -1.953125
1549535, 0.431885, 0.504883, -0.762451, -0.122070, 2.990724, -1.220703
1549555, 0.438599, 0.516724, -0.763794, 0.671387, 2.075195, -0.671387
1549575, 0.438354, 0.513306, -0.760254, 0.732422, 0.915528, -0.549316
1549595, 0.441406, 0.515381, -0.753784, 0.610352, -1.098633, -0.732422
1549615, 0.435913, 0.513306, -0.758423, 0.915528, -1.159668, 0.244141
1549635, 0.440063, 0.503174, -0.757446, 0.122070, -0.854492, 1.037598
1549655, 0.436035, 0.504883, -0.759033, 0.549316, -0.732422, 0.244141
1549675, 0.436401, 0.509521, -0.765503, 0.366211, -0.854492, 0.671387
1549695, 0.434692, 0.503784, -0.759521, 0.610352, -0.732422, 0.915528
1549715, 0.428833, 0.493652, -0.764648, 0.488281, -1.098633, -0.244141
1549735, 0.420044, 0.503052, -0.772949, -0.305176, -1.342773, -1.403809
1549755, 0.418091, 0.511719, -0.775269, -0.122070, -2.014160, -1.770020
1549775, 0.394165, 0.500244, -0.770874, -0.671387, -0.244141, -1.708985
1549795, 0.403076, 0.507080, -0.758667, -1.831055, 6.347658, -0.061035
1549815, 0.439453, 0.514771, -0.744873, -2.441406, 9.765625, 0.671387
1549835, 0.514404, 0.525146, -0.742920, -0.732422, 4.943848, 2.136230
1549855, 0.473999, 0.503418, -0.743896, 0.366211, -2.807618, -0.244141
1549875, 0.441406, 0.497437, -0.751343, 0.671387, -0.610352, 0.366211
1549895, 0.455322, 0.510132, -0.759888, 1.220703, -0.915528, -0.610352
1549915, 0.434204, 0.510498, -0.759521, 2.014160, -1.342773, -0.915528
1549935, 0.429077, 0.505249, -0.764038, 1.342773, -1.831055, -1.342773
1549955, 0.427002, 0.507324, -0.764160, 0.000000, -1.159668, -1.220703
1549975, 0.449951, 0.514160, -0.750000, 0.244141, -0.427246, -0.915528
1549995, 0.447754, 0.514160, -0.742920, 1.281738, -0.732422, -0.610352
1550015, 0.448120, 0.514282, -0.750122, 1.770020, -0.183106, 0.000000
1550035, 0.442505, 0.504272, -0.755127, 2.014160, -0.305176, 0.305176
1550055, 0.435303, 0.500854, -0.760132, 1.220703, -0.671387, 0.122070
1550075, 0.429565, 0.512329, -0.767700, 1.342773, -0.366211, 0.549316
1550095, 0.432983, 0.507080, -0.764404, 1.647950, -0.427246, 0.122070
1550115, 0.435669, 0.504272, -0.758667, 1.586915, -0.549316, -0.915528
1550135, 0.436035, 0.508301, -0.755737, 1.403809, -0.671387, -1.586915
1550155, 0.443237, 0.513916, -0.756104, 1.403809, -0.488281, -1.464844
1550175, 0.450684, 0.500122, -0.755127, 1.647950, -0.122070, -0.061035
1550195, 0.452637, 0.490234, -0.751953, 1.342773, -0.610352, -1.037598
1550215, 0.441772, 0.526489, -0.763428, 0.793457, 0.183106, -1.342773
1550235, 0.437866, 0.505615, -0.763428, 0.976563, -0.305176, -0.854492
1550255, 0.427368, 0.501709, -0.766602, 0.732422, -0.671387, -0.366211
1550275, 0.430420, 0.496582, -0.765625, 0.000000, -0.427246, -0.976563
1550295, 0.429565, 0.508911, -0.763916, -0.305176, 0.122070, -1.892090
1550315, 0.449097, 0.509521, -0.754883, 0.488281, 0.244141, -2.075195
1550335, 0.456421, 0.509766, -0.748169, 0.915528, 0.244141, -1.708985
1550355, 0.450684, 0.516968, -0.742920, 1.403809, 0.305176, -0.732422
1550375, 0.447388, 0.512939, -0.754395, 2.136230, 0.183106, -0.061035
1550395, 0.438232, 0.505859, -0.764771, 2.197266, -0.915528, -0.061035
1550415, 0.429443, 0.487305, -0.772095, 0.366211, -0.671387, 0.000000
1550435, 0.424561, 0.501587, -0.774780, -0.427246, -1.159668, -0.366211
1550455, 0.425781, 0.504883, -0.770752, -0.183106, -0.671387, -0.244141
1550475, 0.435303, 0.503662, -0.759521, -0.610352, -0.976563, -0.488281
1550495, 0.451660, 0.507324, -0.749146, -0.854492, -1.525879, -0.488281
1550515, 0.446411, 0.510498, -0.748779, -0.610352, -1.098633, -0.305176
1550535, 0.448975, 0.514160, -0.749023, -0.305176, -1.098633, 0.061035
1550555, 0.443970, 0.515625, -0.756958, 0.549316, -1.098633, 1.159668
1550575, 0.439575, 0.498169, -0.758057, 0.427246, -1.098633, 1.342773
1550595, 0.436401, 0.529175, -0.766235, -0.427246, -0.976563, 0.610352
1550615, 0.431152, 0.499512, -0.767212, -0.671387, -1.403809, 0.061035
1550635, 0.433838, 0.501465, -0.765991, -1.464844, -0.976563, 0.061035
1550655, 0.438965, 0.507690, -0.758545, -1.342773, -1.464844, -0.427246
1550675, 0.437500, 0.510742, -0.755249, -0.915528, -1.342773, -0.122070
1550695, 0.447144, 0.507324, -0.752808, -0.915528, -1.159668, 0.183106
1550715, 0.449219, 0.506714, -0.751221, -0.854492, -0.976563, 0.427246
1550735, 0.444336, 0.508301, -0.753052, -0.732422, -1.159668, 0.122070
1550755, 0.437622, 0.508179, -0.755859, -0.366211, -0.915528, 0.183106
1550775, 0.434692, 0.513062, -0.761597, -0.427246, -1.037598, -0.061035
1550795, 0.435669, 0.505005, -0.760376, -0.122070, -1.098633, -0.183106
1550815, 0.436401, 0.499878, -0.758545, -0.488281, -1.159668, -1.159668
1550835, 0.444458, 0.507568, -0.755859, -0.671387, -0.244141, -1.159668
1550855, 0.446289, 0.524658, -0.751465, 0.305176, -0.671387, -0.366211
1550875, 0.436768, 0.517334, -0.754761, 0.793457, -0.976563, 0.854492
1550895, 0.441895, 0.503784, -0.753540, 0.305176, -0.671387, 0.427246
1550915, 0.434937, 0.500854, -0.756714, 0.366211, -1.159668, -0.854492
1550935, 0.433472, 0.510132, -0.766846, 0.000000, -0.793457, -0.671387
1550955, 0.433105, 0.515991, -0.760620, 0.122070, -0.976563, -0.427246
1550975, 0.438354, 0.505859, -0.757202, -0.305176, -0.976563, -0.244141
1550995, 0.444702, 0.515015, -0.752197, -0.244141, -0.732422, -0.305176
1551015, 0.445313, 0.510132, -0.748047, 0.549316, -0.671387, 0.183106
1551035, 0.441406, 0.515015, -0.754761, 0.122070, -0.671387, 0.427246
1551055, 0.436401, 0.511230, -0.750732, 0.488281, -0.488281, 0.244141
1551075, 0.436890, 0.507568, -0.761597, 0.122070, -0.488281, 0.000000
1551095, 0.434570, 0.511353, -0.756714, -0.122070, -0.366211, -0.244141
1551115, 0.439087, 0.506714, -0.757813, 0.549316, -0.305176, -0.854492
1551135, 0.433716, 0.506348, -0.760620, 0.305176, -0.610352, -1.159668
1551155, 0.433594, 0.513428, -0.758423, 0.000000, -0.305176, -1.098633
1551175, 0.432983, 0.520020, -0.755737, 0.427246, -0.976563, -1.342773
1551195, 0.441528, 0.504272, -0.759521, 0.671387, -0.488281, -0.976563
1551215, 0.448364, 0.502075, -0.754517, 0.732422, -0.122070, -1.403809
1551235, 0.444580, 0.504761, -0.750122, 1.159668, 0.000000, -1.770020
1551255, 0.439697, 0.513306, -0.757202, 0.915528, 0.488281, -1.403809
1551275, 0.441650, 0.526733, -0.753052, 0.671387, 0.244141, -0.549316
1551295, 0.439453, 0.519287, -0.752930, 1.892090, -0.244141, 0.549316
1551315, 0.434692, 0.498535, -0.760376, 1.403809, -0.366211, 0.366211
1551335, 0.434692, 0.503174, -0.761353, 0.183106, -0.244141, 0.183106
1551355, 0.432739, 0.515503, -0.758667, 0.366211, -0.183106, -0.427246
1551375, 0.433350, 0.522461, -0.753906, 0.244141, -0.488281, 0.244141
1551395, 0.443848, 0.519409, -0.751709, 0.732422, -0.671387, 0.976563
1551415, 0.444336, 0.507080, -0.751221, 0.915528, -1.098633, 1.281738
1551435, 0.444458, 0.510132, -0.757446, 0.244141, -0.854492, 1.953125
1551455, 0.436768, 0.512329, -0.755737, 0.366211, -0.854492, 2.136230
1551475, 0.434448, 0.507568, -0.758667, 0.549316, -1.037598, 2.075195
1551495, 0.434937, 0.504517, -0.763794, 0.305176, -1.037598, 1.770020
1551515, 0.443726, 0.505005, -0.755859, 0.305176, -0.793457, 1.586915
1551535, 0.438232, 0.501343, -0.757202, -0.183106, -1.159668, 1.586915
1551555, 0.444214, 0.514526, -0.754395, -0.366211, -0.549316, 1.953125
1551575, 0.441284, 0.507690, -0.754028, 0.305176, -0.976563, 1.770020
1551595, 0.435303, 0.499634, -0.757446, -0.366211, -0.854492, 0.976563
1551615, 0.440308, 0.510498, -0.760010, -0.305176, -0.549316, 0.610352
1551635, 0.439209, 0.506348, -0.760010, 0.427246, -1.159668, 0.183106
1551655, 0.434570, 0.501221, -0.763916, -0.061035, -0.976563, 0.000000
1551675, 0.440552, 0.507324, -0.759399, -0.366211, -0.427246, 0.183106
1551695, 0.442993, 0.506226, -0.753906, -0.366211, -0.671387, -0.122070
1551715, 0.437500, 0.512939, -0.754761, -0.488281, -0.854492, 0.000000
1551735, 0.441162, 0.513306, -0.754395, 0.305176, -0.854492, 0.061035
1551755, 0.440918, 0.501831, -0.757446, 0.183106, -0.854492, -0.183106
1551775, 0.442261, 0.502197, -0.756104, -0.366211, -0.610352, -0.610352
1551795, 0.443481, 0.515625, -0.755615, -0.183106, -0.732422, 0.061035
1551815, 0.444092, 0.518311, -0.754150, 0.366211, -1.159668, 0.366211
1551835, 0.440063, 0.506836, -0.751465, 0.610352, -0.793457, 0.366211
1551855, 0.448486, 0.500854, -0.751099, 0.305176, -0.549316, -0.488281
1551875, 0.445068, 0.506104, -0.754639, -0.061035, -0.610352, 0.000000
1551895, 0.445679, 0.512695, -0.753418, 0.244141, -0.427246, 0.427246
1551915, 0.437256, 0.512451, -0.756104, 0.549316, -0.671387, 0.244141
1551935, 0.439209, 0.509399, -0.757813, 0.610352, -0.549316, 0.549316
1551955, 0.446045, 0.504395, -0.751709, 0.488281, -0.671387, 0.244141
1551975, 0.447510, 0.504639, -0.752319, 0.000000, -0.732422, 0.366211
1551995, 0.443481, 0.513428, -0.756348, 0.000000, -0.793457, 0.915528
1552015, 0.441284, 0.509766, -0.753784, 0.183106, -0.976563, 1.220703
1552035, 0.438843, 0.510254, -0.757935, -0.122070, -0.915528, 1.525879
1552055, 0.441040, 0.513672, -0.756836, 0.244141, -1.037598, 1.525879
1552075, 0.435791, 0.503784, -0.757568, 0.427246, -1.281738, 1.159668
1552095, 0.440430, 0.505371, -0.762695, 0.061035, -0.976563, 0.610352
1552115, 0.439453, 0.504761, -0.755005, 0.366211, -0.854492, 0.183106
1552135, 0.440918, 0.505127, -0.756836, 0.488281, -0.671387, -0.549316
1552155, 0.444092, 0.506836, -0.755005, 0.610352, -0.427246, -0.549316
1552175, 0.445923, 0.505371, -0.754395, 0.671387, -0.427246, -0.549316
1552195, 0.442749, 0.502441, -0.755127, 0.366211, -0.427246, -0.915528
1552215, 0.443481, 0.502808, -0.755005, 0.000000, -0.549316, -1.342773
1552235, 0.442383, 0.511108, -0.757446, 0.061035, -0.610352, -1.037598
1552255, 0.438477, 0.513672, -0.758179, 0.305176, -0.671387, -0.671387
1552275, 0.442017, 0.504517, -0.754517, 0.244141, -0.549316, -0.915528
1552295, 0.444214, 0.507324, -0.752441, 0.061035, -1.159668, -1.037598
1552315, 0.443237, 0.516479, -0.755615, 0.427246, -0.732422, 0.061035
1552335, 0.440796, 0.508301, -0.751099, 0.183106, -0.854492, 0.488281
1552355, 0.440552, 0.509399, -0.756592, -0.061035, -0.976563, -0.122070
1552375, 0.442017, 0.508179, -0.757568, 0.549316, -0.915528, -0.366211
1552395, 0.440796, 0.499512, -0.757202, 0.244141, -1.098633, -0.488281
1552415, 0.443604, 0.506226, -0.753662, -0.427246, -0.915528, -0.549316
1552435, 0.441650, 0.516113, -0.754883, -0.061035, -1.037598, -0.366211
1552455, 0.436890, 0.513550, -0.760742, -0.122070, -1.098633, 0.305176
1552475, 0.438110, 0.506958, -0.753784, -0.183106, -1.098633, 0.000000
1552495, 0.441895, 0.507324, -0.758179, -0.061035, -0.854492, -0.488281
1552515, 0.445801, 0.510864, -0.750732, -0.244141, -0.793457, -0.366211
1552535, 0.443970, 0.514893, -0.750977, 0.061035, -0.671387, 0.366211
1552555, 0.442505, 0.515015, -0.752563, 0.183106, -0.610352, 0.488281
1552575, 0.443237, 0.509033, -0.752808, 0.488281, -0.854492, 0.366211
1552595, 0.438354, 0.506836, -0.757568, 0.183106, -1.037598, 0.000000
1552615, 0.437744, 0.505493, -0.755005, 0.427246, -0.854492, -0.366211
1552635, 0.435425, 0.506714, -0.761597, 0.000000, -0.671387, -0.427246
1552655, 0.439697, 0.509521, -0.755859, -0.061035, -0.610352, -0.854492
1552675, 0.440186, 0.511597, -0.755737, 0.244141, -0.488281, -0.976563
1552695, 0.445801, 0.510010, -0.748901, 0.122070, -0.732422, -0.427246
1552715, 0.442871, 0.514893, -0.752319, 0.305176, -0.793457, 0.000000
1552735, 0.440430, 0.512695, -0.754883, 0.183106, -0.610352, 0.061035
1552755, 0.438599, 0.510132, -0.755615, 0.305176, -0.549316, -0.183106
1552775, 0.438110, 0.512817, -0.758057, 0.366211, -0.732422, -0.183106
1552795, 0.440430, 0.513428, -0.754150, 0.488281, -0.610352, 0.183106
1552815, 0.444092, 0.506104, -0.750854, 0.488281, -0.793457, 0.122070
1552835, 0.445679, 0.508789, -0.752441, 0.244141, -0.732422, 0.183106
1552855, 0.442017, 0.509033, -0.753174, 0.305176, -0.305176, 0.427246
1552875, 0.436157, 0.511841, -0.757568, -0.061035, -0.488281, 0.366211
1552895, 0.442261, 0.515503, -0.755615, 0.244141, -0.366211, 0.610352
1552915, 0.439209, 0.510376, -0.755493, 0.549316, -0.854492, 0.427246
1552935, 0.440186, 0.509766, -0.756348, 0.488281, -0.610352, 0.183106
1552955, 0.444092, 0.504272, -0.753906, 0.427246, 0.000000, 0.061035
1552975, 0.447998, 0.510742, -0.749756, 0.305176, -0.244141, -0.061035
1552995, 0.444946, 0.517822, -0.751099, 0.671387, -0.183106, 0.671387
1553015, 0.442749, 0.514648, -0.754517, 0.915528, -0.183106, 0.854492
1553035, 0.440430, 0.509766, -0.755249, 0.976563, -0.732422, 0.488281
1553055, 0.436890, 0.507935, -0.758667, 0.976563, -0.732422, 0.488281
1553075, 0.437744, 0.505005, -0.757446, 0.427246, -0.610352, 0.244141
1553095, 0.441528, 0.508423, -0.755615, 0.671387, -0.610352, -0.427246
1553115, 0.440674, 0.509033, -0.758179, 0.671387, -0.610352, -0.549316
1553135, 0.446167, 0.508545, -0.753418, 0.549316, -0.183106, -0.061035
1553155, 0.445190, 0.506226, -0.751099, 0.793457, -0.671387, -0.183106
1553175, 0.438477, 0.508545, -0.760254, 0.549316, -0.610352, -0.427246
1553195, 0.443726, 0.510254, -0.756348, 0.488281, -0.732422, -0.122070
1553215, 0.438843, 0.507935, -0.757568, 0.366211, -0.976563, 0.183106
1553235, 0.439941, 0.504883, -0.757813, 0.244141, -0.915528, -0.122070
1553255, 0.437744, 0.504028, -0.759521, -0.183106, -1.037598, -1.037598
1553275, 0.437622, 0.508423, -0.756226, -0.366211, -0.915528, -1.281738
1553295, 0.443726, 0.519043, -0.752441, -0.305176, -1.098633, -1.098633
1553315, 0.447266, 0.521606, -0.750732, 0.122070, -1.464844, 0.122070
1553335, 0.448486, 0.505371, -0.751953, 0.366211, -1.037598, 0.793457
1553355, 0.446411, 0.496826, -0.749146, -0.122070, -1.098633, 0.061035
1553375, 0.443237, 0.510620, -0.756348, -0.183106, -1.037598, -0.427246
1553395, 0.436523, 0.517334, -0.758057, 0.061035, -0.854492, 0.366211
1553415, 0.435425, 0.513672, -0.754883, 0.305176, -1.159668, 0.305176
1553435, 0.437134, 0.509644, -0.757690, 0.000000, -1.281738, 0.305176
1553455, 0.446899, 0.508301, -0.750366, -0.305176, -1.281738, 0.305176
1553475, 0.453735, 0.500000, -0.745239, -0.488281, -0.915528, 0.183106
1553495, 0.449341, 0.515137, -0.748291, -0.122070, -1.037598, 0.427246
1553515, 0.435303, 0.509033, -0.756592, 0.549316, -0.610352, 0.000000
1553535, 0.433594, 0.506836, -0.764771, 0.183106, -0.610352, -0.427246
1553555, 0.435913, 0.506348, -0.762085, 0.244141, -0.488281, -0.732422
1553575, 0.439575, 0.500854, -0.755249, -0.122070, -0.549316, -1.281738
1553595, 0.444336, 0.513062, -0.753906, -0.732422, -0.610352, -1.159668
1553615, 0.445801, 0.518066, -0.748535, -0.122070, -0.427246, -0.793457
1553635, 0.439453, 0.509155, -0.752441, -0.244141, -0.427246, -0.671387
1553655, 0.436890, 0.516602, -0.757813, -0.122070, -0.732422, -0.427246
1553675, 0.433960, 0.519531, -0.761108, 0.000000, -0.610352, 0.061035
1553695, 0.434326, 0.511353, -0.755981, 0.366211, -0.854492, -0.305176
1553715, 0.433350, 0.508179, -0.756958, -0.366211, -0.915528, -0.976563
1553735, 0.444092, 0.518555, -0.750122, -0.549316, -0.793457, -0.610352
1553755, 0.443604, 0.521851, -0.749878, -0.183106, -1.464844, 0.549316
1553775, 0.440674, 0.519287, -0.749146, -0.122070, -1.281738, 1.098633
1553795, 0.440430, 0.510376, -0.750000, 0.061035, -1.220703, 1.037598
1553815, 0.438843, 0.510132, -0.756958, -0.183106, -1.464844, 0.366211
1553835, 0.437744, 0.515259, -0.755493, -0.366211, -1.342773, 0.305176
1553855, 0.439453, 0.505615, -0.749390, -0.854492, -1.831055, 0.305176
1553875, 0.397217, 0.494263, -0.756470, -1.159668, 3.479005, 1.892090
1553895, 0.454956, 0.497803, -0.765747, -1.159668, 9.399414, 3.051759
1553915, 0.454834, 0.501099, -0.759277, 0.244141, 5.432129, -1.281738
1553935, 0.441040, 0.505615, -0.759521, -0.427246, 2.746582, -3.234864
1553955, 0.447021, 0.530273, -0.739380, -1.159668, 2.990724, -2.746582
1553975, 0.450317, 0.542114, -0.725586, 0.366211, 4.699707, -0.732422
1553995, 0.480225, 0.533813, -0.734253, 0.427246, 3.051759, 1.037598
1554015, 0.459351, 0.520142, -0.731567, 1.647950, -1.098633, 1.525879
1554035, 0.450317, 0.502808, -0.749756, 1.647950, -0.366211, 1.159668
1554055, 0.438599, 0.502808, -0.758667, 1.037598, -0.732422, -0.488281
1554075, 0.431152, 0.502930, -0.764771, 1.464844, -0.488281, -1.525879
1554095, 0.433105, 0.509888, -0.763184, 0.183106, -0.854492, -1.708985
1554115, 0.441650, 0.520020, -0.750610, 0.061035, -1.220703, -1.708985
1554135, 0.444824, 0.516479, -0.746216, 0.183106, -1.281738, -1.647950
1554155, 0.453003, 0.518311, -0.743164, 0.061035, -1.098633, -1.037598
1554175, 0.441895, 0.511719, -0.739258, -0.122070, 3.051759, 1.342773
1554195, 0.474731, 0.508301, -0.737183, -0.793457, 3.051759, 1.464844
1554215, 0.451538, 0.516724, -0.744019, 0.122070, -1.281738, -0.183106
1554235, 0.448975, 0.512207, -0.747925, -0.183106, -0.488281, 0.183106
1554255, 0.450562, 0.522095, -0.744629, -0.183106, -0.732422, 0.122070
1554275, 0.447388, 0.517456, -0.744507, 0.549316, -0.549316, 0.305176
1554295, 0.450439, 0.512085, -0.745361, 0.061035, -0.671387, 0.000000
1554315, 0.449707, 0.519043, -0.745728, 0.244141, -0.854492, 0.122070
1554335, 0.453613, 0.511963, -0.745850, 0.671387, -0.732422, 0.000000
1554355, 0.455688, 0.508057, -0.741455, 0.000000, -0.244141, 0.488281
1554375, 0.456787, 0.519043, -0.741699, 0.122070, -0.549316, 0.488281
1554395, 0.447144, 0.518311, -0.750977, 0.610352, -0.427246, 0.915528
1554415, 0.446533, 0.512329, -0.746094, 0.549316, -0.732422, 0.366211
1554435, 0.450806, 0.506470, -0.746582, 0.427246, -0.488281, -0.061035
1554455, 0.453735, 0.509644, -0.746582, 0.000000, -0.427246, -0.610352
1554475, 0.453369, 0.513672, -0.742065, 0.366211, -0.427246, -0.793457
1554495, 0.451050, 0.520508, -0.745239, 0.732422, -0.366211, -0.854492
1554515, 0.447021, 0.517212, -0.744995, 0.915528, -0.244141, -1.037598
1554535, 0.447144, 0.513306, -0.747070, 0.854492, -0.305176, -1.342773
1554555, 0.449707, 0.514771, -0.750854, 0.610352, -0.488281, -1.281738
1554575, 0.446655, 0.511108, -0.745239, 0.732422, -0.671387, -1.037598
1554595, 0.453003, 0.515259, -0.743408, -0.183106, -0.366211, -1.342773
1554615, 0.452148, 0.521606, -0.742188, 0.488281, -0.549316, -1.159668
1554635, 0.442871, 0.521606, -0.750977, 0.305176, -0.976563, -0.854492
1554655, 0.446777, 0.516968, -0.746338, 0.366211, -0.732422, -0.183106
1554675, 0.444336, 0.505371, -0.737793, 0.488281, -0.671387, 0.061035
1554695, 0.470703, 0.511353, -0.762573, -0.915528, -1.159668, -1.281738
1554715, 0.431030, 0.532471, -0.737915, 0.183106, -0.976563, -0.305176
1554735, 0.465210, 0.486938, -0.732056, 0.366211, -0.671387, 0.061035
1554755, 0.442505, 0.536865, -0.759766, -1.342773, -0.732422, -2.197266
1554775, 0.456909, 0.506592, -0.749634, 0.610352, -1.220703, 0.061035
1554795, 0.446899, 0.522217, -0.748291, -0.915528, -0.732422, -0.061035
1554815, 0.450806, 0.516235, -0.736450, 0.610352, -1.220703, 0.000000
1554835, 0.443237, 0.520996, -0.757080, -0.061035, -0.854492, -0.183106
1554855, 0.449951, 0.513916, -0.737183, 0.366211, -0.732422, -0.549316
1554875, 0.448364, 0.520508, -0.750488, 0.000000, -0.854492, -0.610352
1554895, 0.449463, 0.520020, -0.741455, 0.244141, -0.671387, -0.183106
1554915, 0.448242, 0.512207, -0.745728, 0.244141, -0.793457, -0.122070
1554935, 0.445923, 0.513794, -0.744141, -0.427246, -0.793457, -0.549316
1554955, 0.448364, 0.520508, -0.747314, 0.000000, -0.610352, -0.549316
1554975, 0.448486, 0.519165, -0.743652, 0.000000, -0.671387, -0.244141
1554995, 0.452881, 0.515259, -0.740234, -0.061035, -0.793457, -0.366211
1555015, 0.449097, 0.520508, -0.745117, -0.305176, -0.671387, -0.183106
1555035, 0.449219, 0.517700, -0.741577, -0.122070, -0.732422, -0.183106
1555055, 0.446533, 0.518921, -0.746948, -0.366211, -0.793457, 0.122070
1555075, 0.444458, 0.527222, -0.746704, -0.305176, -0.915528, 0.244141
1555095, 0.447998, 0.521240, -0.745972, 0.427246, -0.793457, 0.549316
1555115, 0.448608, 0.510498, -0.742432, 0.122070, -1.037598, 0.488281
1555135, 0.449707, 0.516846, -0.742920, -0.366211, -0.854492, -0.183106
1555155, 0.451294, 0.522705, -0.741821, 0.122070, -0.427246, 0.793457
1555175, 0.454712, 0.516968, -0.736694, 0.000000, -0.671387, 0.732422
1555195, 0.448364, 0.517944, -0.740479, 0.244141, -0.732422, 0.366211
1555215, 0.447021, 0.516479, -0.748535, 0.061035, -0.732422, 0.061035
1555235, 0.444214, 0.518066, -0.748047, -0.122070, -0.671387, -0.549316
1555255, 0.446777, 0.511475, -0.744995, -0.061035, -0.549316, -1.220703
1555275, 0.448853, 0.516846, -0.745239, -0.793457, -0.366211, -1.464844
1555295, 0.449829, 0.532837, -0.740112, -0.183106, -0.305176, -0.732422
1555315, 0.449585, 0.530151, -0.741333, 0.732422, -0.549316, -0.183106
1555335, 0.445557, 0.520386, -0.741455, 0.488281, -0.610352, 0.427246
1555355, 0.451538, 0.518311, -0.743774, 0.305176, -0.610352, -0.244141
1555375, 0.449829, 0.520508, -0.745972, 0.610352, -0.366211, 0.244141
1555395, 0.452271, 0.517700, -0.741455, 0.488281, -0.244141, 0.427246
1555415, 0.446777, 0.521606, -0.741455, 0.427246, -0.732422, 0.000000
1555435, 0.443604, 0.526245, -0.746704, 0.549316, -0.610352, 0.244141
1555455, 0.450806, 0.517700, -0.742188, 0.671387, -0.732422, 0.793457
1555475, 0.446899, 0.532471, -0.749878, 0.488281, -1.098633, 0.427246
1555495, 0.453491, 0.512817, -0.732178, 1.342773, 0.000000, 1.281738
1555515, 0.451294, 0.515869, -0.748901, 0.366211, -1.037598, 0.244141
1555535, 0.449951, 0.518677, -0.741333, 1.159668, -0.854492, 0.610352
1555555, 0.441162, 0.516235, -0.752686, 0.549316, -0.793457, 0.427246
1555575, 0.448975, 0.516113, -0.742920, 0.366211, -0.549316, 0.427246
1555595, 0.451538, 0.514771, -0.746826, 0.244141, -0.915528, 0.183106
1555615, 0.453613, 0.517212, -0.739868, 0.061035, -0.854492, 0.244141
1555635, 0.454346, 0.519287, -0.740723, 0.366211, -0.854492, 0.610352
1555655, 0.448608, 0.519043, -0.742432, 0.183106, -0.976563, 0.854492
1555675, 0.442505, 0.510620, -0.751587, -0.366211, -0.915528, 1.281738
1555695, 0.452026, 0.521729, -0.749023, -0.610352, -0.732422, 0.793457
1555715, 0.447266, 0.521729, -0.742920, 0.488281, -1.220703, 0.976563
1555735, 0.456665, 0.524658, -0.742798, 0.305176, -0.976563, 2.685547
1555755, 0.450806, 0.525879, -0.735229, 1.281738, -1.281738, 2.319336
1555775, 0.454224, 0.526367, -0.748047, 1.892090, -0.732422, 3.051759
1555795, 0.450195, 0.519531, -0.745605, 1.892090, -0.915528, 4.394531
1555815, 0.450562, 0.507080, -0.749512, 1.953125, -1.220703, 5.249023
1555835, 0.442261, 0.502319, -0.760986, 0.671387, -1.342773, 5.187988
1555855, 0.434692, 0.498779, -0.764893, -0.427246, -2.075195, 6.042482
1555875, 0.429199, 0.496460, -0.783813, -1.831055, -2.319336, 6.652834
1555895, 0.363647, 0.487305, -0.773682, -3.906251, 6.530764, 9.521484
1555915, 0.425659, 0.507202, -0.750732, -4.272461, 18.371582, 11.596684
1555935, 0.445923, 0.502563, -0.745605, -3.662110, 20.874023, 11.657719
1555955, 0.449707, 0.489258, -0.757690, -5.737307, 21.057129, 12.939457
1555975, 0.454834, 0.487671, -0.753784, -7.873537, 25.634773, 16.357422
1555995, 0.459473, 0.493652, -0.731812, -9.521484, 31.494148, 18.920898
1556015, 0.481934, 0.503540, -0.734253, -8.728027, 36.132813, 19.104004
1556035, 0.488159, 0.498657, -0.758789, -8.544922, 36.926270, 18.737793
1556055, 0.455322, 0.457397, -0.756226, -9.582520, 40.771484, 21.301270
1556075, 0.447388, 0.429932, -0.738281, -15.380863, 50.537125, 24.658211
1556095, 0.551758, 0.430908, -0.644043, -15.930180, 61.279312, 23.376472
1556115, 0.697754, 0.476685, -0.529663, -3.173829, 59.509293, 6.652834
1556135, 0.771729, 0.474243, -0.498535, 3.906251, 44.677750, -2.624512
1556155, 0.814697, 0.392578, -0.462402, 10.498047, 22.338875, -12.878422
1556175, 0.740601, 0.379395, -0.502563, 8.544922, 7.873537, -29.113777
1556195, 0.675781, 0.479004, -0.472534, 13.305668, 0.732422, -45.959488
1556215, 0.635864, 0.487183, -0.492676, 31.311043, -9.521484, -49.072281
1556235, 0.443970, 0.652588, -0.808716, 36.071777, -25.207527, -32.226563
1556255, 0.601807, 0.732300, -0.771729, 12.390141, -11.840824, -14.709476
1556275, 0.611328, 0.769775, -0.664185, 30.578621, 28.259285, 9.582520
1556295, 0.553955, 0.378174, -0.629639, 18.676758, 4.272461, 7.873537
1556315, 0.573364, 0.444336, -0.609985, 18.920898, -4.211426, 3.601075
1556335, 0.612549, 0.451416, -0.645142, 12.084965, 1.342773, -6.530764
1556355, 0.596802, 0.540649, -0.667480, 17.333984, 10.192871, -5.615236
1556375, 0.607544, 0.474487, -0.673706, 12.207035, 4.516602, -5.554201
1556395, 0.570801, 0.483398, -0.627930, 12.451176, -5.065918, -2.624512
1556415, 0.595459, 0.475586, -0.699341, 6.225588, 8.056641, -9.399414
1556435, 0.578613, 0.474976, -0.674561, 2.685547, 1.831055, -9.643555
1556455, 0.586060, 0.458740, -0.686279, -0.366211, -0.854492, -11.413578
1556475, 0.522827, 0.431152, -0.657593, -5.249023, 7.629396, -10.498047
1556495, 0.559570, 0.439819, -0.651733, -11.291508, 18.493652, -14.892582
1556515, 0.569214, 0.467896, -0.663208, -13.305668, 17.822266, -19.470215
1556535, 0.520508, 0.509766, -0.640747, -12.084965, 10.375977, -11.291508
1556555, 0.603638, 0.542480, -0.661377, -16.357422, 37.780762, -8.178711
1556575, 0.605225, 0.616089, -0.595093, -9.216309, 37.780762, 1.220703
1556595, 0.713257, 0.566650, -0.602661, -5.493164, 31.066902, 4.150391
1556615, 0.690186, 0.536987, -0.560913, -5.981447, 13.183598, 1.220703
1556635, 0.712402, 0.539795, -0.549194, -2.441406, 1.403809, -2.197266
1556655, 0.642090, 0.539307, -0.578613, 0.488281, -8.239746, -3.662110
1556675, 0.658569, 0.523071, -0.619751, 0.793457, -17.211914, -3.356935
1556695, 0.570435, 0.467285, -0.600708, -12.084965, -5.187988, 9.155273
1556715, 0.664429, 0.514404, -0.537231, -22.277840, 0.915528, 21.301270
1556735, 0.646729, 0.545532, -0.515747, -23.986824, 6.103518, 26.245125
1556755, 0.700928, 0.540405, -0.562012, -21.301270, 1.403809, 23.437508
1556775, 0.683838, 0.555786, -0.604004, -17.456055, -13.732914, 15.808109
1556795, 0.606201, 0.542603, -0.647095, -9.887695, -20.751953, 7.141115
1556815, 0.549072, 0.544800, -0.661743, -4.760742, -17.639160, 2.441406
1556835, 0.494019, 0.591064, -0.681641, 2.441406, -1.159668, 1.647950
1556855, 0.657349, 0.667603, -0.656250, 10.620117, 14.892582, -2.075195
1556875, 0.603027, 0.467896, -0.648682, 47.973648, -6.958010, -8.544922
1556895, 0.521851, 0.347900, -0.604858, 33.386230, 1.953125, -6.652834
1556915, 0.597412, 0.359009, -0.585938, 18.005371, 8.483887, -9.521484
1556935, 0.611938, 0.406860, -0.558228, 6.347658, 17.700195, -10.253906
1556955, 0.654785, 0.423950, -0.570435, -3.295899, 18.920898, -13.366703
1556975, 0.650269, 0.446289, -0.582520, -11.108402, 13.671879, -16.723633
1556995, 0.580566, 0.540405, -0.593140, -15.502934, 11.108402, -14.770512
1557015, 0.665161, 0.658203, -0.602051, -4.211426, 25.756844, -1.281738
1557035, 0.674927, 0.531250, -0.590576, -5.737307, 11.840824, -1.220703
1557055, 0.544678, 0.540771, -0.593872, -3.967286, 23.010262, 3.479005
1557075, 0.692139, 0.672607, -0.637207, -5.126953, 25.451668, -7.446291
1557095, 0.731323, 0.674683, -0.592285, -6.286623, -0.732422, -18.188477
1557115, 0.682373, 0.621948, -0.599609, -11.657719, -21.911621, -22.949226
1557135, 0.672119, 0.583862, -0.561401, -15.258793, -27.526863, -26.916512
1557155, 0.663574, 0.477905, -0.502930, -12.329105, -28.320320, -26.367195
1557175, 0.659668, 0.474365, -0.528076, -6.774904, -33.020020, -21.057129
1557195, 0.596436, 0.518066, -0.578735, -4.272461, -35.766602, -15.625004
1557215, 0.601196, 0.529175, -0.619995, -7.080080, -33.630371, -13.366703
1557235, 0.569946, 0.496826, -0.568604, -4.211426, -31.616219, -8.422852
1557255, 0.608643, 0.538696, -0.585693, 0.915528, -26.428230, -2.624512
1557275, 0.677246, 0.569702, -0.625488, -1.525879, -44.128418, -5.065918
1557295, 0.571289, 0.533081, -0.536865, 1.464844, -67.138672, -3.540040
1557315, 0.424438, 0.541870, -0.588135, 2.502441, -44.250504, 9.399414
1557335, 0.403076, 0.600464, -0.663574, -12.084965, -3.906251, 23.803719
1557355, 0.535400, 0.635376, -0.623901, -17.028809, 13.305668, 23.986824
1557375, 0.541260, 0.638184, -0.643799, -16.052246, 8.911133, 16.662598
1557395, 0.496094, 0.622314, -0.682251, -15.686039, 9.094238, 7.995607
1557415, 0.547241, 0.590698, -0.659424, -16.906738, 5.737307, 2.868653
1557435, 0.559082, 0.594482, -0.651611, -22.644051, -0.671387, 1.403809
1557455, 0.580322, 0.590942, -0.573975, -22.216805, -4.211426, -1.647950
1557475, 0.579834, 0.602539, -0.531616, -12.023930, 9.399414, -7.141115
1557495, 0.557129, 0.633423, -0.595093, -17.456055, 3.479005, -9.765625
1557515, 0.566772, 0.607788, -0.627686, -17.578125, -5.310059, -7.080080
1557535, 0.539429, 0.590088, -0.573975, -14.465336, 1.220703, -10.131836
1557555, 0.471802, 0.591919, -0.596558, -9.765625, 0.610352, -9.338379
1557575, 0.508667, 0.626465, -0.588623, -5.371094, 15.380863, -10.253906
1557595, 0.563232, 0.594482, -0.626343, 2.197266, 18.554688, -18.066406
1557615, 0.463135, 0.601807, -0.608521, -0.366211, 16.174316, -17.150879
1557635, 0.545776, 0.598267, -0.582520, 13.061527, 19.287109, -19.714355
1557655, 0.562378, 0.581665, -0.555176, 17.944336, 16.479492, -19.287109
1557675, 0.582520, 0.604004, -0.554321, 21.118164, 11.962894, -16.357422
1557695, 0.580444, 0.607666, -0.529785, 28.198250, -2.624512, -18.066406
1557715, 0.567871, 0.600708, -0.557617, 24.414070, -4.028320, -12.207035
1557735, 0.536377, 0.625000, -0.592529, 18.554688, -0.671387, -8.239746
1557755, 0.573120, 0.642090, -0.589722, 8.483887, 2.380371, -4.821777
1557775, 0.580200, 0.635986, -0.542236, 7.751467, -8.422852, -5.126953
1557795, 0.540405, 0.626343, -0.615601, 4.821777, -11.901859, -4.211426
1557815, 0.491333, 0.625122, -0.600708, 3.356935, -16.174316, -3.051759
1557835, 0.462891, 0.616333, -0.630615, 2.075195, -4.272461, -0.732422
1557855, 0.502563, 0.617920, -0.611816, 1.281738, 0.854492, 0.732422
1557875, 0.528564, 0.614624, -0.615356, 0.305176, -0.671387, 1.281738
1557895, 0.516113, 0.620483, -0.602173, 0.366211, -1.159668, 1.281738
1557915, 0.520630, 0.619629, -0.603638, 0.610352, -0.976563, 1.586915
1557935, 0.533569, 0.616333, -0.609253, 0.488281, -2.319336, 1.403809
1557955, 0.530762, 0.615479, -0.608154, 0.305176, -3.967286, 0.854492
1557975, 0.521729, 0.614014, -0.615479, -0.366211, -4.943848, 0.488281
1557995, 0.518188, 0.620605, -0.600952, -0.122070, -4.638672, 0.671387
1558015, 0.532349, 0.624146, -0.594727, 1.220703, -3.295899, -0.610352
1558035, 0.536987, 0.629517, -0.597534, 2.807618, -3.601075, -1.525879
1558055, 0.553345, 0.659424, -0.593262, 5.554201, -1.586915, -2.868653
1558075, 0.551880, 0.691895, -0.576782, 13.183598, -2.685547, -0.854492
1558095, 0.506958, 0.957153, -0.544800, 31.982430, 16.113281, 28.259285
1558115, 0.711548, 0.981201, -0.492065, 79.162598, 17.883301, 68.603516
1558135, 0.849121, 0.432129, -0.525757, 71.105957, -21.667480, 61.218277
1558155, 0.629272, 0.227051, -0.553467, 38.330078, -69.641113, 31.921394
1558175, 0.488892, 0.334595, -0.665039, 22.583015, -90.026886, 4.211426
1558195, 0.308228, 0.479248, -0.852661, 14.709476, -70.556641, -4.821777
1558215, 0.256104, 0.445435, -0.865967, 9.765625, -43.029785, 1.831055
1558235, 0.270020, 0.406128, -0.831055, -0.366211, -17.272949, 8.972168
1558255, 0.360107, 0.425293, -0.791626, -7.629396, 0.061035, 9.399414
1558275, 0.412354, 0.475342, -0.752563, -10.498047, 6.164553, 6.713869
1558295, 0.487061, 0.507935, -0.719482, -8.789063, 12.573246, 7.019045
1558315, 0.530273, 0.530273, -0.697388, -7.690432, 12.939457, 7.690432
1558335, 0.564697, 0.537598, -0.673340, -5.310059, 10.742188, 7.995607
1558355, 0.580566, 0.536255, -0.661743, -0.915528, 1.892090, 3.845216
1558375, 0.508667, 0.515869, -0.692871, 2.441406, 0.427246, 2.197266
1558395, 0.511963, 0.511597, -0.724609, 3.417970, -3.479005, 0.915528
1558415, 0.474976, 0.497925, -0.734375, 3.784181, -6.164553, 0.061035
1558435, 0.447754, 0.483032, -0.751221, 2.014160, -4.211426, 1.281738
