timestamp,ax,ay,az,gx,gy,gz
1228400, 0.336182, 0.923828, -0.169556, -0.183106, -1.037598, 1.098633
1228420, 0.352539, 0.941772, -0.208984, -0.793457, -2.319336, 0.183106
1228440, 0.340576, 0.916626, -0.213989, -3.234864, -6.713869, -1.037598
1228460, 0.336792, 0.922852, -0.209473, -6.042482, -5.371094, -1.953125
1228480, 0.310791, 0.937988, -0.165649, -6.408693, -5.554201, -2.502441
1228500, 0.315674, 0.938721, -0.167969, -5.187988, -4.943848, -1.586915
1228520, 0.324341, 0.937134, -0.168091, -4.516602, -4.150391, -1.647950
1228540, 0.323853, 0.934570, -0.166626, -3.906251, -7.202150, -1.220703
1228560, 0.310425, 0.940186, -0.159180, -2.929688, -7.446291, -0.976563
1228580, 0.304199, 0.940674, -0.161743, -1.403809, -5.432129, -0.305176
1228600, 0.311157, 0.937622, -0.165283, -0.549316, -3.662110, 0.732422
1228620, 0.315918, 0.941650, -0.155029, 1.037598, -0.732422, 0.610352
1228640, 0.334717, 0.936401, -0.166382, 1.953125, -3.051759, 0.305176
1228660, 0.330933, 0.937378, -0.164917, 3.540040, -4.211426, -1.770020
1228680, 0.331665, 0.934448, -0.182495, 4.089355, -4.394531, -2.563477
1228700, 0.340454, 0.926758, -0.211548, 2.319336, -3.662110, -4.394531
1228720, 0.326782, 0.933594, -0.199951, -0.183106, -2.563477, -6.408693
1228740, 0.267456, 0.946533, -0.171387, -0.061035, -0.610352, -5.187988
1228760, 0.224365, 0.953735, -0.163574, 1.831055, 2.441406, 0.549316
1228780, 0.270752, 0.951050, -0.166748, 3.356935, 4.760742, 7.202150
1228800, 0.374512, 0.944092, -0.178101, 5.126953, 10.131836, 5.249023
1228820, 0.447998, 0.992432, -0.100952, 16.418457, -8.361816, -0.976563
1228840, 0.377686, 1.112549, -0.239014, 27.465828, -20.263672, -2.136230
1228860, 0.456543, 1.058716, -0.302734, 39.367676, -27.038582, -6.835939
1228880, 0.396240, 1.009644, -0.395264, 49.255386, -31.066902, -18.920898
1228900, 0.298340, 0.938232, -0.483521, 55.175797, -32.653809, -30.883797
1228920, 0.178589, 0.897949, -0.540039, 56.701675, -28.808601, -32.592773
1228940, 0.065063, 0.825684, -0.562744, 56.030289, -25.878914, -24.780281
1228960, 0.021973, 0.729248, -0.562622, 54.870621, -11.535648, -15.075687
1228980, -0.007324, 0.661987, -0.577637, 46.508804, 4.577637, -7.385256
1229000, 0.067871, 0.671631, -0.532227, 36.071777, 23.132332, -0.427246
1229020, 0.165527, 0.751587, -0.395996, 32.592773, 48.706070, 3.540040
1229040, 0.292603, 0.806030, -0.327026, 33.752441, 59.814468, -2.197266
1229060, 0.354004, 0.772339, -0.404419, 18.188477, 53.039566, -5.798342
1229080, 0.374023, 0.785034, -0.363525, -7.690432, 37.841797, -6.835939
1229100, 0.338501, 0.848877, -0.183716, -23.254402, 26.245125, -5.737307
1229120, 0.313843, 0.921021, -0.026978, -20.019531, 26.000984, 1.525879
1229140, 0.347046, 0.971680, 0.007935, -5.126953, 31.433113, 6.347658
1229160, 0.381348, 0.953979, -0.098267, 6.774904, 30.639656, 8.239746
1229180, 0.399048, 0.936890, -0.241333, 6.835939, 20.751953, 11.596684
1229200, 0.384155, 0.946899, -0.320801, -3.906251, 8.239746, 15.625004
1229220, 0.380859, 0.977173, -0.307617, -14.404301, 2.380371, 15.869144
1229240, 0.395264, 1.006104, -0.261963, -13.671879, 3.173829, 8.544922
1229260, 0.399658, 1.000610, -0.257080, -6.591799, 0.671387, 5.310059
1229280, 0.375977, 0.953125, -0.282471, 0.488281, -7.568361, 4.943848
1229300, 0.329468, 0.867798, -0.331299, -0.488281, -13.488773, 4.516602
1229320, 0.316895, 0.822632, -0.362427, -11.535648, -12.268070, -0.244141
1229340, 0.313110, 0.859497, -0.322510, -23.132332, -10.131836, -5.676271
1229360, 0.292847, 0.908691, -0.257446, -28.686531, -15.258793, -8.483887
1229380, 0.242065, 0.919189, -0.204590, -28.442390, -21.545410, -7.080080
1229400, 0.194214, 0.919922, -0.177612, -26.855476, -21.057129, -0.366211
1229420, 0.183350, 0.978271, -0.188721, -18.371582, -6.286623, 13.732914
1229440, 0.221802, 0.971558, -0.246704, -11.596684, 1.525879, 21.484375
1229460, 0.278809, 0.903564, -0.305298, -6.347658, 3.234864, 23.437508
1229480, 0.374146, 0.972534, -0.389160, -5.065918, -2.075195, 21.972656
1229500, 0.425415, 0.897461, -0.442017, -15.319828, 3.845216, 17.456055
1229520, 0.461426, 0.866333, -0.380249, -28.198250, 0.976563, 9.887695
1229540, 0.453125, 0.911255, -0.252563, -33.142090, -8.911133, 2.380371
1229560, 0.416504, 0.932129, -0.156006, -28.442390, -16.723633, -1.464844
1229580, 0.412598, 0.932129, -0.140503, -20.141602, -15.441898, -6.958010
1229600, 0.369141, 0.925049, -0.177979, -13.793949, -16.784668, -10.681152
1229620, 0.245728, 0.922241, -0.228516, -11.962894, -18.127441, -3.784181
1229640, 0.282715, 0.924438, -0.219849, -11.535648, -8.972168, 0.793457
1229660, 0.330566, 0.914063, -0.239380, -11.230473, 1.342773, 0.976563
1229680, 0.363159, 0.911255, -0.256348, -14.221195, 4.272461, -1.220703
1229700, 0.342407, 0.922119, -0.209473, -16.113281, 1.281738, -1.831055
1229720, 0.328247, 0.928345, -0.191406, -14.770512, -2.258301, -0.488281
1229740, 0.320801, 0.924805, -0.206787, -14.648441, -0.915528, 0.305176
1229760, 0.322876, 0.931274, -0.184570, -14.709476, 0.732422, 1.464844
1229780, 0.320435, 0.936768, -0.158447, -12.512211, 2.136230, 2.319336
1229800, 0.285278, 0.935303, -0.153809, -7.934572, 6.774904, 6.347658
1229820, 0.260376, 0.931641, -0.180054, -6.896975, 9.582520, 11.535648
1229840, 0.241943, 0.928223, -0.198853, -7.568361, 18.554688, 17.883301
1229860, 0.159790, 0.938477, -0.190186, -5.310059, 37.109375, 23.437508
1229880, 0.341064, 1.057495, -0.086792, 12.512211, 36.621094, 17.822266
1229900, 0.296997, 1.038818, -0.147583, 40.832520, 42.785645, 1.159668
1229920, 0.350586, 1.011230, -0.213135, 62.561050, 45.654312, -20.019531
1229940, 0.309570, 0.900024, -0.332642, 68.969727, 48.156754, -29.602058
1229960, 0.258911, 0.827026, -0.475830, 53.894058, 45.349136, -27.038582
1229980, 0.279053, 0.786499, -0.426758, 23.376472, 49.438492, -9.826660
1230000, 0.462402, 0.869019, -0.223999, -0.976563, 52.673355, 6.530764
1230020, 0.580933, 0.859497, -0.074707, -7.995607, 45.959488, 6.225588
1230040, 0.632446, 0.891724, 0.013184, -13.183598, 25.756844, 4.394531
1230060, 0.619995, 0.914673, 0.029785, -14.404301, 5.981447, -2.441406
1230080, 0.546997, 0.959351, 0.180542, -8.850098, -10.864258, -7.934572
1230100, 0.406860, 1.041016, 0.340088, 26.000984, -33.508301, -11.108402
1230120, 0.188477, 0.994629, 0.139526, 64.819336, -39.001465, -2.563477
1230140, 0.159912, 0.921387, -0.454346, 59.265152, -11.413578, -2.929688
1230160, 0.290039, 0.888672, -0.596069, 8.056641, 16.235352, -15.686039
1230180, 0.141357, 0.997681, -0.169678, -13.549809, 7.690432, -15.930180
1230200, 0.138062, 0.989380, -0.156616, -7.202150, 12.084965, -12.939457
1230220, 0.191650, 0.957153, -0.168091, -2.075195, 20.996094, -9.643555
1230240, 0.276855, 0.923584, -0.158325, 6.347658, 25.329597, 0.549316
1230260, 0.402466, 0.886719, -0.202637, 13.916019, 24.902351, 6.530764
1230280, 0.506104, 0.831421, -0.262085, 16.113281, 19.470215, 8.117676
1230300, 0.543945, 0.842407, -0.308472, 17.639160, 13.671879, 11.474613
1230320, 0.611694, 0.791260, -0.406372, 12.207035, 8.483887, 5.249023
1230340, 0.586060, 0.793945, -0.413574, 2.685547, 0.244141, -2.014160
1230360, 0.517578, 0.823364, -0.313477, 0.732422, -7.568361, 0.488281
1230380, 0.661133, 0.825928, -0.510742, -14.526371, -2.197266, -18.615723
1230400, 0.688599, 0.859131, -0.357422, -33.325195, -19.409180, -43.945313
1230420, 0.543579, 0.897339, -0.193115, -36.987305, -54.199234, -58.959976
1230440, 0.247070, 0.901245, -0.059937, -29.907234, -68.603516, -55.419937
1230460, -0.002075, 0.947998, 0.098267, -10.009766, -35.949707, -22.094727
1230480, 0.086670, 0.955811, 0.062256, 12.146000, 6.286623, 9.582520
1230500, 0.249268, 0.925293, -0.058105, 23.437508, 25.451668, 28.930672
1230520, 0.396484, 0.904541, -0.118164, 22.705086, 20.629883, 39.428711
1230540, 0.518311, 0.932373, -0.191528, 14.282230, 2.502441, 32.592773
1230560, 0.477417, 0.925903, -0.230835, -2.746582, -22.521980, 8.728027
1230580, 0.362427, 0.948120, -0.187134, -9.094238, -36.804199, -0.244141
1230600, 0.254517, 0.969971, -0.183350, -9.765625, -42.480469, -3.234864
1230620, 0.154541, 0.966675, -0.199463, -7.812502, -36.437988, -1.586915
1230640, 0.131958, 0.983032, -0.231812, -7.019045, -27.648933, -0.183106
1230660, 0.096558, 0.964111, -0.261108, -6.713869, -20.080566, 1.098633
1230680, 0.122803, 0.954224, -0.261963, -9.460449, -11.596684, 7.385256
1230700, 0.159058, 0.967407, -0.246704, -9.460449, -4.943848, 10.742188
1230720, 0.185425, 0.952026, -0.243896, -7.385256, 1.281738, 12.390141
1230740, 0.245605, 0.952393, -0.266479, -9.094238, 3.662110, 12.512211
1230760, 0.325928, 0.957031, -0.242554, -12.146000, -5.065918, 4.882813
1230780, 0.309814, 0.969116, -0.211060, -10.498047, -9.521484, -5.004883
1230800, 0.262939, 0.973755, -0.178345, -2.441406, -10.437012, -11.413578
1230820, 0.205078, 0.956787, -0.219116, 8.483887, -8.056641, -10.620117
1230840, 0.166138, 0.923950, -0.315186, 12.512211, -0.610352, -7.080080
1230860, 0.171753, 0.911377, -0.392822, 7.934572, 9.460449, -0.671387
1230880, 0.234497, 0.894653, -0.410767, 1.220703, 19.653320, 2.502441
1230900, 0.274170, 0.906128, -0.398804, -4.455566, 27.160652, 1.464844
1230920, 0.290039, 0.907959, -0.361572, -3.723145, 28.015144, -2.990724
1230940, 0.328735, 0.881958, -0.366333, -1.220703, 29.052742, -2.746582
1230960, 0.338501, 0.877075, -0.354248, -1.708985, 28.869637, 0.183106
1230980, 0.353027, 0.869385, -0.340576, -3.784181, 33.935547, 3.417970
1231000, 0.389648, 0.850464, -0.303467, -4.577637, 37.292480, 3.723145
1231020, 0.410645, 0.924805, -0.351074, -6.347658, 42.846680, -2.929688
1231040, 0.458130, 0.910767, -0.272827, -10.803223, 26.855476, -3.662110
1231060, 0.436279, 0.941772, -0.203857, -6.591799, 23.803719, -14.343266
1231080, 0.361572, 0.928833, -0.115723, 1.159668, 20.629883, -15.930180
1231100, 0.373901, 0.913208, -0.103027, 9.277344, 23.254402, -12.390141
1231120, 0.397949, 0.883179, -0.130249, 11.779789, 27.404793, -7.263186
1231140, 0.436646, 0.882324, -0.128418, 8.300781, 24.169930, -6.591799
1231160, 0.476440, 0.898682, -0.145996, 4.638672, 22.399910, -8.178711
1231180, 0.468384, 0.916504, -0.090820, 1.892090, 16.235352, -9.582520
1231200, 0.446533, 0.932373, -0.030884, 5.615236, 6.530764, -9.460449
1231220, 0.416382, 0.932739, -0.055054, 8.728027, -4.150391, -9.948730
1231240, 0.375366, 0.934692, -0.100830, 8.117676, -12.451176, -11.779789
1231260, 0.334351, 0.946411, -0.121704, 3.967286, -21.057129, -13.854984
1231280, 0.290405, 0.973145, -0.095825, 0.549316, -24.841316, -16.723633
1231300, 0.246704, 0.993042, -0.083374, 0.061035, -24.230965, -21.667480
1231320, 0.146484, 0.994995, -0.029053, 10.131836, -18.859863, -17.761230
1231340, 0.100830, 0.987183, -0.039551, 25.939949, -10.620117, -5.554201
1231360, 0.160767, 0.946045, -0.189209, 33.447266, -0.244141, 4.211426
1231380, 0.245483, 0.923096, -0.283325, 31.005867, 5.065918, 8.544922
1231400, 0.319702, 0.909912, -0.332886, 24.230965, 4.272461, 8.056641
1231420, 0.362793, 0.896973, -0.375977, 14.099125, 1.281738, 3.112794
1231440, 0.352661, 0.906128, -0.350098, 3.479005, -3.356935, -2.502441
1231460, 0.321045, 0.921875, -0.294678, -2.685547, -7.995607, -5.737307
1231480, 0.307617, 0.934204, -0.248047, -4.516602, -15.197758, -6.835939
1231500, 0.291626, 0.946167, -0.208862, -1.159668, -28.747566, -6.103518
1231520, 0.281860, 0.947754, -0.206665, 2.746582, -31.921394, -6.958010
1231540, 0.226685, 0.948608, -0.213135, 5.859377, -25.390633, -7.873537
1231560, 0.183960, 0.949463, -0.220947, 9.521484, -18.432617, -4.516602
1231580, 0.169067, 0.936646, -0.258911, 11.413578, -9.643555, 0.427246
1231600, 0.191162, 0.928101, -0.296875, 10.192871, -2.502441, 5.310059
1231620, 0.228882, 0.927612, -0.297974, 7.568361, 2.868653, 7.995607
1231640, 0.284546, 0.919189, -0.321899, 3.417970, 1.525879, 7.751467
1231660, 0.313843, 0.915405, -0.316162, -0.061035, -4.333496, 5.981447
1231680, 0.301392, 0.927246, -0.292236, -2.075195, -7.934572, 3.295899
1231700, 0.254761, 0.932495, -0.268311, -3.112794, -6.958010, 1.770020
1231720, 0.247559, 0.934570, -0.260376, -1.892090, -4.394531, 2.685547
1231740, 0.249634, 0.927734, -0.275024, -1.647950, -5.615236, 4.333496
1231761, 0.263916, 0.929688, -0.283936, -2.258301, -4.272461, 5.065918
1231781, 0.277954, 0.925415, -0.288574, -3.601075, -2.502441, 4.272461
1231801, 0.279175, 0.927124, -0.280518, -4.943848, -0.671387, 3.234864
1231821, 0.297363, 0.928345, -0.264526, -5.126953, 1.586915, 1.403809
1231841, 0.305908, 0.931641, -0.278198, -5.310059, 5.798342, -2.441406
1231861, 0.296265, 0.927368, -0.254761, -7.995607, 5.310059, -5.798342
1231881, 0.272339, 0.941528, -0.237305, -7.812502, 1.525879, -5.249023
1231901, 0.274414, 0.944092, -0.195557, -4.272461, -1.525879, -4.882813
1231921, 0.268555, 0.948364, -0.195801, 0.976563, -2.502441, -5.310059
1231941, 0.255615, 0.940796, -0.230957, 4.577637, -3.356935, -4.821777
1231961, 0.259399, 0.925659, -0.281738, 4.211426, -3.234864, -4.333496
1231981, 0.248291, 0.923462, -0.310303, 0.244141, -2.197266, -4.089355
1232001, 0.216675, 0.930908, -0.284546, -3.295899, -0.671387, -2.075195
1232021, 0.196533, 0.939331, -0.253540, -4.028320, 1.647950, 2.014160
1232041, 0.178345, 0.944702, -0.231934, -2.746582, 4.516602, 7.751467
1232061, 0.196167, 0.942993, -0.227051, 0.976563, 11.291508, 16.662598
1232081, 0.241821, 0.924438, -0.238159, 2.014160, 13.610844, 20.324707
