timestamp,ax,ay,az,gx,gy,gz
1311685, 0.414673, 0.833496, -0.409668, 1.037598, 5.737307, 0.122070
1311705, 0.432495, 0.817383, -0.397583, 1.281738, 2.075195, 0.610352
1311725, 0.415771, 0.817871, -0.407959, 1.281738, 4.516602, -0.610352
1311745, 0.422729, 0.821045, -0.402100, 1.037598, 3.417970, -0.427246
1311765, 0.422974, 0.824219, -0.402466, 1.281738, 3.784181, -0.793457
1311785, 0.428711, 0.822388, -0.405518, 1.159668, 3.173829, -1.403809
1311805, 0.419800, 0.823120, -0.402710, 1.220703, 2.380371, -1.708985
1311825, 0.411255, 0.823486, -0.402100, 1.403809, 1.892090, -1.159668
1311845, 0.409424, 0.822144, -0.408203, 1.159668, 2.929688, -0.488281
1311865, 0.412720, 0.821411, -0.405762, 0.732422, 3.723145, -0.183106
1311885, 0.415405, 0.821899, -0.401001, 0.549316, 3.967286, 0.366211
1311905, 0.427734, 0.823730, -0.401489, 0.610352, 3.234864, 0.427246
1311925, 0.433960, 0.819824, -0.408325, 0.244141, 3.112794, -0.244141
1311945, 0.439453, 0.815674, -0.410767, -0.732422, 0.488281, -1.342773
1311965, 0.431030, 0.821899, -0.399414, -1.281738, -0.854492, -1.953125
1311985, 0.423584, 0.823853, -0.395264, -0.793457, -0.610352, -2.685547
1312005, 0.413330, 0.826294, -0.395508, -0.488281, -0.244141, -2.624512
1312025, 0.407471, 0.825439, -0.396484, -0.244141, 0.061035, -1.831055
1312045, 0.411011, 0.824585, -0.399170, -0.183106, 0.061035, -0.976563
1312065, 0.414917, 0.827026, -0.392822, -0.061035, 0.061035, -0.610352
1312085, 0.419312, 0.828247, -0.388550, 0.610352, -0.793457, -0.305176
1312105, 0.419922, 0.824707, -0.395630, 1.098633, -0.732422, -0.549316
1312125, 0.419067, 0.824585, -0.402954, 0.854492, -0.549316, -0.732422
1312145, 0.414429, 0.822754, -0.406250, 0.366211, -0.122070, -0.793457
1312165, 0.413330, 0.824707, -0.403687, -0.366211, -0.427246, -0.366211
1312185, 0.410278, 0.827026, -0.393555, -0.366211, -0.183106, 0.183106
1312205, 0.414185, 0.830078, -0.383789, 1.159668, -1.586915, 1.159668
1312225, 0.410156, 0.828369, -0.387817, 2.075195, -1.342773, 1.464844
1312245, 0.408447, 0.824707, -0.399414, 2.746582, -0.061035, 2.075195
1312265, 0.410889, 0.822266, -0.413086, 1.953125, 1.037598, 2.624512
1312285, 0.409424, 0.818604, -0.406860, 1.098633, 2.258301, 3.295899
1312305, 0.418213, 0.820068, -0.402954, 0.610352, 2.502441, 3.906251
1312325, 0.427124, 0.821045, -0.400269, 0.427246, 2.929688, 3.845216
1312345, 0.434448, 0.822266, -0.393555, 0.549316, 1.220703, 3.662110
1312365, 0.422852, 0.818848, -0.399536, 0.671387, 0.244141, 3.723145
1312385, 0.434570, 0.819946, -0.397217, 0.549316, 1.403809, 3.417970
1312405, 0.453491, 0.817261, -0.396118, 0.610352, 1.281738, 2.319336
1312425, 0.452148, 0.817627, -0.397095, 0.671387, -0.122070, 0.671387
1312445, 0.436157, 0.816406, -0.400024, 0.549316, -1.770020, -0.183106
1312465, 0.423340, 0.816650, -0.402588, 0.183106, -1.037598, 0.122070
1312485, 0.434204, 0.819458, -0.393799, 0.061035, -1.220703, 0.305176
1312505, 0.433350, 0.818970, -0.392334, 0.671387, -1.464844, 0.000000
1312525, 0.426270, 0.817505, -0.398804, 0.732422, -1.281738, 0.122070
1312545, 0.422974, 0.819336, -0.394287, 0.854492, -0.915528, 0.610352
1312565, 0.433105, 0.816772, -0.402466, 0.976563, 0.183106, 0.732422
1312585, 0.439941, 0.815430, -0.407593, -0.305176, -0.305176, -0.305176
1312605, 0.432251, 0.817505, -0.398193, -0.671387, -1.037598, -0.305176
1312625, 0.434082, 0.818848, -0.391968, -0.427246, -1.647950, -0.366211
1312645, 0.436646, 0.818970, -0.391602, 0.183106, -1.464844, -0.671387
1312665, 0.453613, 0.817505, -0.395386, 0.549316, -3.112794, -1.525879
1312685, 0.443970, 0.820557, -0.405518, 0.244141, -5.676271, -2.807618
1312705, 0.431763, 0.817017, -0.400879, -0.183106, -7.263186, -2.685547
1312725, 0.421265, 0.824463, -0.398804, -0.122070, -7.385256, -2.746582
1312745, 0.392700, 0.844482, -0.383667, 1.037598, -8.605957, -0.488281
1312765, 0.400757, 0.831421, -0.367920, 5.859377, -2.990724, 5.004883
1312785, 0.541992, 0.834717, -0.362915, 8.972168, -14.709476, 4.211426
1312805, 0.530884, 0.784790, -0.371094, 11.962894, -35.766602, 6.347658
1312825, 0.426636, 0.830811, -0.427490, 5.859377, -40.710449, 36.926270
1312845, 0.461792, 0.845947, -0.467896, -8.056641, -48.522964, 67.993164
1312865, 0.635254, 0.689697, -0.459473, -28.808601, -52.307144, 70.800781
1312885, 0.667969, 0.640259, -0.442017, -47.058121, -76.660156, 55.908218
1312905, 0.539185, 0.616943, -0.421143, -60.180679, -79.345703, 33.508301
1312925, 0.508423, 0.643799, -0.403931, -64.086914, -74.279785, 15.747074
1312945, 0.458862, 0.725342, -0.451416, -57.678238, -65.063477, -15.441898
1312965, 0.201782, 1.179077, -0.516479, -24.169930, -80.017090, -46.691910
1312985, -0.006104, 0.751831, -0.723145, -37.719727, -20.080566, -24.719246
1313005, 0.056885, 0.850586, -0.532715, -54.016129, -5.371094, -5.554201
1313025, 0.161499, 0.992432, -0.229248, -31.311043, -2.441406, 1.220703
1313045, 0.169434, 1.014404, -0.158081, 11.535648, 16.052246, -6.286623
1313065, 0.226318, 1.019531, -0.268555, 55.725113, 38.513184, -32.287598
1313085, 0.314331, 0.858032, -0.518921, 74.645996, 48.217789, -57.067886
1313105, 0.270508, 0.732788, -0.694946, 49.804703, 51.025406, -51.879898
1313125, 0.318604, 0.719849, -0.580444, 11.718754, 43.945313, -23.925789
1313145, 0.422485, 0.833618, -0.301025, -18.005371, 50.292984, 3.845216
1313165, 0.487793, 0.842773, -0.200928, -16.967773, 58.227554, 10.314941
1313185, 0.607178, 0.851807, -0.165894, -16.784668, 48.706070, 14.221195
1313205, 0.662354, 0.853760, -0.138794, -17.700195, 25.451668, 15.197758
1313225, 0.669800, 0.916626, -0.032959, -7.385256, -2.624512, 10.192871
1313245, 0.538818, 0.931152, -0.017334, 23.803719, -21.179199, -3.295899
1313265, 0.422852, 0.877441, -0.241211, 42.114258, -31.250008, -7.568361
1313285, 0.391968, 0.909058, -0.564819, 30.944832, -28.686531, -18.310547
1313305, 0.232178, 0.887207, -0.534302, 0.183106, -21.972656, -29.418953
1313325, 0.032104, 0.932617, -0.351685, -6.225588, -10.131836, -18.371582
1313345, 0.114746, 0.924805, -0.359131, -7.690432, 25.512703, -6.286623
1313365, 0.178345, 0.953613, -0.311523, -2.685547, 28.808601, 0.366211
1313385, 0.351685, 0.908813, -0.379272, -2.624512, 21.850586, -4.638672
1313405, 0.364624, 0.880737, -0.340088, -0.671387, 13.610844, -7.812502
1313425, 0.404419, 0.861938, -0.368042, -0.305176, 8.850098, -7.019045
1313445, 0.487427, 0.874512, -0.381348, -2.685547, -1.647950, -15.869144
1313465, 0.441772, 0.805298, -0.362549, 1.037598, -9.887695, -20.019531
1313485, 0.375488, 0.801147, -0.370850, 9.338379, -13.671879, -10.986328
1313505, 0.375244, 0.744141, -0.467041, 10.314941, -4.516602, -1.037598
1313525, 0.446411, 0.736694, -0.449219, 12.878422, 7.446291, 16.845703
1313545, 0.530029, 0.726563, -0.495361, 14.404301, 11.352543, 22.338875
1313565, 0.616699, 0.728027, -0.518555, 13.183598, 9.826660, 18.798828
1313585, 0.701294, 0.757813, -0.673340, 1.464844, 5.432129, 0.854492
1313605, 0.758057, 0.763428, -0.652710, -25.268562, -5.310059, -27.343758
1313625, 0.747070, 0.800537, -0.460815, -37.292480, -30.517586, -54.199234
1313645, 0.539551, 0.786377, -0.259888, -32.348633, -60.607925, -62.561050
1313665, 0.264038, 0.847656, -0.138916, -13.183598, -68.542480, -46.936050
1313685, 0.143188, 0.858765, -0.217896, -0.183106, -40.100098, -18.676758
1313705, 0.211792, 0.847534, -0.309692, -2.075195, -0.488281, 5.493164
1313725, 0.437012, 0.895752, -0.279541, -11.901859, 13.488773, 20.385742
1313745, 0.506470, 0.880371, -0.262573, -15.747074, -1.098633, 20.080566
1313765, 0.498047, 0.936523, -0.239380, -20.324707, -17.150879, 15.563969
1313785, 0.419556, 0.957764, -0.171631, -19.409180, -30.517586, 6.713869
1313805, 0.245117, 0.952026, -0.197998, -15.563969, -37.963867, 2.807618
1313825, 0.129272, 1.000977, -0.221436, -14.953617, -50.781265, 15.441898
1313845, 0.202393, 1.005371, -0.229370, -3.173829, -46.203629, -0.671387
1313865, -0.108276, 0.966187, -0.378540, -9.033203, -30.883797, 5.065918
1313885, -0.071167, 0.995605, -0.286865, -7.751467, -19.775391, 14.160160
1313905, -0.059326, 0.980347, -0.371948, -3.723145, -2.990724, 20.141602
1313925, 0.017822, 0.971436, -0.385254, -4.394531, 5.493164, 21.301270
1313945, 0.059692, 0.937622, -0.389282, -1.403809, 4.516602, 22.766121
1313965, 0.106323, 0.929688, -0.449097, -0.976563, 2.258301, 24.780281
1313985, 0.135132, 0.882690, -0.504883, -3.845216, 9.582520, 23.071297
1314005, 0.188232, 0.889404, -0.458618, -0.976563, 14.648441, 24.841316
1314025, 0.271362, 0.826416, -0.560303, -3.784181, 27.954109, 21.179199
1314045, 0.329102, 0.827148, -0.558105, -10.314941, 32.958984, 18.676758
1314065, 0.386597, 0.826050, -0.533203, -14.770512, 31.372078, 13.061527
1314085, 0.409668, 0.795654, -0.525879, -18.676758, 35.217285, 5.126953
1314105, 0.365723, 0.816284, -0.465210, -17.944336, 38.696289, 4.760742
1314125, 0.442505, 0.802734, -0.452515, -16.723633, 41.564941, 6.042482
1314145, 0.514893, 0.825928, -0.409302, -12.329105, 43.151855, -1.281738
1314165, 0.565063, 0.847534, -0.375488, -5.859377, 39.245605, -12.695316
1314185, 0.586548, 0.829224, -0.375732, -1.831055, 33.691406, -27.648933
1314205, 0.575806, 0.837891, -0.366089, -0.915528, 26.855476, -38.269043
1314225, 0.514404, 0.843750, -0.346191, 2.563477, 23.315437, -49.194351
1314245, 0.477905, 0.843018, -0.329224, 5.004883, 15.075687, -55.908218
1314265, 0.390015, 0.866821, -0.342285, 4.821777, 30.273445, -59.082047
1314285, 0.408325, 0.856079, -0.269897, 0.915528, 31.799324, -55.603043
1314305, 0.414551, 0.859985, -0.242065, -3.723145, 30.761726, -47.363297
1314325, 0.487915, 0.860352, -0.248169, -13.977055, 35.827637, -41.748047
1314345, 0.542114, 0.873047, -0.173828, -23.803719, 28.198250, -40.588379
1314365, 0.596313, 0.901855, -0.125122, -33.081055, 16.662598, -48.950211
1314385, 0.572144, 0.935547, -0.031860, -38.696289, -8.117676, -64.392090
1314405, 0.427124, 0.967285, 0.088135, -36.071777, -42.297363, -74.829102
1314425, 0.169800, 0.998901, 0.112305, -27.526863, -67.810059, -76.416016
1314445, -0.122559, 1.015991, 0.098877, -18.615723, -73.242188, -61.340347
1314465, -0.244995, 1.060181, 0.132080, -2.990724, -53.894058, -37.536621
1314485, -0.253052, 1.056519, 0.038208, 22.399910, -19.348145, -13.061527
1314505, -0.187012, 1.034302, -0.031494, 38.452148, 1.342773, -3.845216
1314525, -0.166382, 0.995605, -0.101685, 49.621597, 13.793949, 14.038090
1314545, -0.095459, 0.964600, -0.174072, 56.823746, 29.663094, 31.921394
1314565, 0.032715, 0.934204, -0.263184, 57.617203, 39.245605, 44.189453
1314585, 0.185547, 0.907837, -0.353027, 52.490250, 41.381836, 47.485367
1314605, 0.309448, 0.893433, -0.416016, 42.175293, 36.254883, 41.870117
1314625, 0.379395, 0.880981, -0.482178, 28.381355, 24.902351, 31.494148
1314645, 0.387329, 0.880371, -0.493164, 11.230473, 13.305668, 19.042969
1314665, 0.343384, 0.914795, -0.374023, -4.272461, -2.624512, 4.333496
1314685, 0.303711, 0.926758, -0.328369, -7.934572, -6.835939, -3.784181
1314705, 0.269287, 0.935425, -0.292603, -8.666992, -9.765625, -8.483887
1314725, 0.216187, 0.945557, -0.266602, -6.652834, -9.338379, -11.230473
1314745, 0.161255, 0.942993, -0.284546, -4.638672, -8.056641, -9.216309
1314765, 0.149780, 0.939819, -0.299316, -4.455566, -2.380371, -5.920412
1314785, 0.149658, 0.942871, -0.291138, -4.699707, 1.647950, -2.441406
1314805, 0.175415, 0.940674, -0.298828, -4.577637, 3.234864, 0.976563
1314825, 0.211548, 0.942139, -0.294189, -5.615236, 4.333496, 1.037598
1314845, 0.213501, 0.952881, -0.251221, -4.272461, 2.807618, 0.305176
1314865, 0.186890, 0.956543, -0.241821, 1.953125, 3.540040, 0.549316
1314885, 0.171631, 0.945313, -0.276001, 4.455566, 3.845216, 3.234864
1314905, 0.187988, 0.934326, -0.311401, 3.356935, 3.234864, 5.615236
1314925, 0.213867, 0.931396, -0.331299, 0.244141, 1.647950, 6.713869
1314945, 0.227173, 0.935669, -0.311523, -3.051759, 1.831055, 5.676271
1314965, 0.229004, 0.942993, -0.276489, -3.173829, 3.540040, 4.089355
1314985, 0.234985, 0.945801, -0.262817, -1.831055, 3.356935, 2.563477
1315005, 0.221802, 0.952148, -0.246826, 0.610352, 1.892090, 1.708985
1315025, 0.209595, 0.949951, -0.251831, 3.784181, 0.793457, 2.502441
1315045, 0.237305, 0.935425, -0.299072, 5.065918, 1.403809, 2.075195
1315065, 0.254150, 0.932129, -0.312134, 2.868653, 0.671387, -0.122070
1315085, 0.244751, 0.935669, -0.301758, 1.281738, -1.098633, -2.319336
1315105, 0.231812, 0.935181, -0.300415, 0.183106, -2.319336, -3.295899
1315125, 0.223999, 0.937622, -0.292847, -0.610352, -2.868653, -4.089355
1315145, 0.207642, 0.937866, -0.297974, -1.098633, -2.746582, -3.906251
1315165, 0.190308, 0.941040, -0.281738, -1.647950, -1.708985, -2.746582
1315185, 0.198975, 0.945190, -0.276001, -0.366211, -0.427246, -0.732422
1315205, 0.233765, 0.938721, -0.293579, -0.366211, -0.366211, -1.281738
1315225, 0.243042, 0.934937, -0.296509, -1.403809, -1.708985, -3.417970
1315245, 0.209351, 0.944824, -0.294067, -3.173829, -2.502441, -5.920412
1315265, 0.152710, 0.942871, -0.248047, -1.953125, -1.220703, -3.417970
