timestamp,ax,ay,az,gx,gy,gz
1630302, 0.487061, 0.831787, -0.295532, 0.549316, -0.061035, 0.183106
1630322, 0.490356, 0.837769, -0.292114, 0.549316, -1.281738, 0.427246
1630342, 0.481445, 0.827026, -0.294678, 0.732422, -0.488281, 0.183106
1630362, 0.482910, 0.827026, -0.296387, 0.183106, -0.793457, 0.122070
1630382, 0.479004, 0.833374, -0.286743, 0.305176, -0.305176, 0.244141
1630402, 0.480835, 0.831299, -0.291748, 0.793457, 0.305176, 0.671387
1630422, 0.487793, 0.829468, -0.297729, 0.488281, 0.061035, 0.732422
1630442, 0.482544, 0.828979, -0.296387, 0.122070, 0.183106, 0.610352
1630462, 0.486084, 0.830566, -0.290649, 0.061035, -0.854492, 1.037598
1630482, 0.497925, 0.828979, -0.293091, 0.244141, -0.915528, 0.305176
1630502, 0.491699, 0.829102, -0.295044, 0.061035, -1.647950, -0.427246
1630522, 0.483765, 0.830566, -0.291626, -0.061035, -1.770020, -0.366211
1630542, 0.482666, 0.831421, -0.288940, 0.305176, -1.098633, -0.305176
1630562, 0.481079, 0.832031, -0.288208, 0.732422, -1.281738, 0.000000
1630582, 0.480713, 0.828857, -0.295898, 0.793457, -0.427246, 0.244141
1630602, 0.487183, 0.829102, -0.298828, 0.244141, -0.366211, 0.366211
1630622, 0.490601, 0.830444, -0.290771, 0.122070, -0.488281, 0.000000
1630642, 0.484985, 0.830566, -0.288696, 0.549316, -0.854492, -0.183106
1630662, 0.476318, 0.830811, -0.293457, 0.671387, 0.183106, 0.488281
1630682, 0.485352, 0.829712, -0.294067, 0.610352, 0.244141, 0.854492
1630702, 0.492920, 0.830078, -0.294922, 0.427246, -0.183106, 0.732422
1630722, 0.490356, 0.829468, -0.291260, 0.366211, -0.732422, 0.366211
1630742, 0.491089, 0.831299, -0.287354, 0.732422, -1.159668, 0.244141
1630762, 0.486694, 0.829834, -0.292603, 1.037598, -1.525879, 0.000000
1630782, 0.479126, 0.829468, -0.296021, 0.915528, -0.915528, 0.366211
1630802, 0.487305, 0.830078, -0.291626, 0.915528, -0.671387, 0.732422
1630842, 0.475830, 0.830566, -0.290894, 1.281738, -0.793457, 1.281738
1630862, 0.486450, 0.830200, -0.285889, 2.014160, 0.183106, 2.380371
1630882, 0.502197, 0.829346, -0.285034, 2.929688, 0.183106, 1.770020
1630922, 0.475586, 0.829834, -0.292480, 3.906251, 0.183106, 1.525879
1630942, 0.485718, 0.833130, -0.281128, 4.882813, 1.892090, 2.197266
1630962, 0.505371, 0.832886, -0.267822, 7.141115, 4.089355, 1.892090
1631002, 0.565918, 0.828369, -0.278564, 12.084965, -6.835939, -2.929688
1631022, 0.549561, 0.825928, -0.301880, 13.549809, -12.207035, -7.934572
1631042, 0.499756, 0.811890, -0.318359, 12.695316, -15.319828, -5.249023
1631062, 0.422119, 0.838989, -0.320923, 12.146000, -14.099125, 5.432129
1631082, 0.428711, 0.838257, -0.357300, 10.742188, -9.887695, 12.146000
1631102, 0.475098, 0.803223, -0.397217, 5.676271, -4.577637, 12.756351
1631122, 0.507935, 0.771118, -0.393921, -2.502441, -3.601075, 10.864258
1631142, 0.516602, 0.784424, -0.345215, -7.263186, -5.493164, 9.643555
1631162, 0.507690, 0.796021, -0.315674, -7.019045, -9.765625, 8.422852
1631182, 0.481323, 0.785645, -0.329712, -6.652834, -14.404301, 8.178711
1631202, 0.504272, 0.778809, -0.347412, -6.958010, -3.479005, 3.234864
1631222, 0.498413, 0.782227, -0.366455, -9.826660, -9.948730, 1.037598
1631242, 0.488770, 0.795776, -0.337036, -11.596684, -8.300781, -0.976563
1631262, 0.463745, 0.799438, -0.331177, -11.657719, -5.249023, 0.976563
1631282, 0.457886, 0.788574, -0.342285, -12.573246, -3.845216, 1.770020
1631302, 0.452271, 0.811279, -0.357422, -14.465336, 1.159668, 0.183106
1631322, 0.477661, 0.918091, -0.336792, -11.657719, -7.446291, 2.868653
1631342, 0.483032, 0.814941, -0.321533, -10.864258, 1.159668, 2.990724
1631362, 0.499390, 0.810059, -0.319336, -12.451176, -2.136230, 3.234864
1631382, 0.487671, 0.831909, -0.281738, -11.901859, -4.028320, 4.150391
1631402, 0.497925, 0.835083, -0.260620, -8.300781, -2.563477, 4.455566
1631422, 0.517090, 0.830444, -0.270020, -3.479005, 4.394531, 1.892090
1631442, 0.526245, 0.823975, -0.285889, -1.708985, 2.258301, 0.488281
1631462, 0.535522, 0.822021, -0.295410, -1.342773, -2.014160, -0.976563
1631482, 0.523438, 0.815186, -0.315674, -2.075195, -5.187988, -2.807618
1631502, 0.503174, 0.817139, -0.317749, -4.394531, -6.713869, -3.540040
1631522, 0.483765, 0.828613, -0.280640, -4.272461, -6.469728, -3.234864
1631542, 0.466064, 0.826538, -0.287354, -2.746582, -3.784181, -1.770020
1631562, 0.477783, 0.827026, -0.291748, -2.319336, -0.427246, -0.366211
1631582, 0.491699, 0.824951, -0.297607, -2.197266, -0.183106, 0.244141
1631602, 0.490234, 0.826172, -0.293579, -2.624512, -0.122070, 0.671387
1631622, 0.486572, 0.826294, -0.285156, -1.464844, -1.647950, 1.831055
1631642, 0.495483, 0.827637, -0.275146, -0.671387, 0.915528, 1.770020
1631662, 0.496582, 0.829468, -0.283325, 0.732422, -1.098633, 2.502441
1631682, 0.506592, 0.824951, -0.290405, 0.854492, 0.793457, 1.586915
1631702, 0.496826, 0.821655, -0.285034, 1.342773, 1.098633, 0.915528
1631722, 0.492065, 0.816040, -0.292480, 1.525879, 1.953125, 0.915528
1631742, 0.506348, 0.833984, -0.298218, 1.098633, 0.549316, 1.647950
1631762, 0.492676, 0.813477, -0.296875, 0.854492, 1.647950, 1.220703
1631782, 0.509521, 0.817383, -0.298462, 0.061035, 1.647950, 1.098633
1631802, 0.513428, 0.824585, -0.283691, -0.305176, -0.244141, 0.061035
1631822, 0.518066, 0.827881, -0.276855, 0.732422, -1.403809, -0.732422
1631842, 0.509155, 0.827637, -0.278809, 1.953125, -2.624512, -1.647950
1631862, 0.476440, 0.826294, -0.284424, 2.807618, -2.136230, -0.976563
1631882, 0.489868, 0.831421, -0.283569, 3.601075, 1.098633, 0.427246
1631902, 0.532104, 0.832397, -0.276489, 5.004883, 1.403809, -0.366211
1631922, 0.574341, 0.832764, -0.280396, 6.774904, 0.000000, -4.699707
1631942, 0.590454, 0.826538, -0.274780, 8.056641, -9.399414, -9.155273
1631962, 0.536987, 0.803101, -0.227661, 11.413578, -15.075687, -3.234864
1631982, 0.526733, 0.834839, -0.288452, 13.671879, -31.433113, 4.455566
1632002, 0.566284, 0.761963, -0.359985, 10.192871, -32.958984, 0.854492
1632022, 0.528564, 0.685059, -0.416870, 4.516602, -41.748047, -13.671879
1632042, 0.424561, 0.646118, -0.508545, -8.972168, -30.029305, -36.254883
1632062, 0.216309, 0.992554, -0.571777, -25.024422, 2.746582, -27.587898
1632082, 0.293579, 0.879639, -0.332642, -28.442390, -1.708985, -12.695316
1632102, 0.345337, 0.939453, -0.354858, -18.859863, 3.601075, -18.981934
1632122, 0.240356, 1.016724, -0.346558, -5.187988, 12.207035, -33.996582
1632142, 0.177246, 0.993774, -0.333130, 15.808109, 20.080566, -44.616714
1632162, 0.241333, 0.916748, -0.342651, 37.292480, 28.137215, -55.297867
1632182, 0.224609, 0.802002, -0.433228, 43.029785, 26.306160, -42.480469
1632202, 0.272339, 0.712280, -0.463013, 18.859863, 33.935547, -8.789063
1632222, 0.456787, 0.751709, -0.300415, -9.887695, 51.086441, 23.864754
1632242, 0.659180, 0.791992, -0.101074, -20.568848, 55.847183, 35.522461
1632262, 0.858276, 0.819214, -0.076050, -26.367195, 39.306641, 32.775879
1632282, 1.069458, 0.918945, 0.026489, -16.662598, -21.606445, 2.868653
1632302, 0.887695, 0.929443, 0.090088, 14.831547, -67.199707, -33.569336
1632342, 0.148071, 0.841797, -0.358154, 45.349136, -94.909698, -52.673355
1632462, 0.405640, 0.856567, -0.292603, -14.160160, 38.146973, -9.094238
1632482, 0.492065, 0.834106, -0.267944, 1.403809, 15.869144, -3.906251
1632502, 0.520752, 0.817261, -0.231689, 15.930180, -16.174316, 4.516602
1632522, 0.510742, 0.767456, -0.307373, 28.259285, -34.240723, 16.479492
1632542, 0.553711, 0.747070, -0.448486, 29.541023, -31.677254, 21.484375
1632562, 0.651733, 0.691895, -0.591064, 19.470215, -20.874023, 14.465336
1632582, 0.701538, 0.681152, -0.643677, 12.146000, -24.292000, 4.333496
1632602, 0.745728, 0.718384, -0.752197, -0.366211, -30.761726, -17.211914
1632622, 0.748535, 0.708984, -0.822144, -40.161133, -40.649414, -46.875015
1632642, 0.532349, 0.714844, -0.383057, -55.297867, -49.194351, -54.870621
1632662, 0.302368, 0.834839, -0.123047, -37.963867, -60.119644, -33.935547
1632682, 0.173218, 0.896973, -0.108154, -17.700195, -35.034180, -8.850098
1632702, 0.207153, 0.882446, -0.108276, -5.920412, 3.662110, 15.869144
1632722, 0.336426, 0.869629, -0.130371, -3.906251, 28.137215, 41.015625
1632742, 0.521118, 0.867798, -0.126221, -8.666992, 26.123055, 57.861343
1632762, 0.600098, 0.928833, -0.127563, -21.423340, -1.647950, 51.696793
1632782, 0.404663, 0.983887, -0.097778, -26.000984, -28.991707, 47.119156
1632802, 0.578125, 1.059692, -0.032715, -13.122562, -53.771988, 24.108894
1632822, 0.234741, 1.013550, -0.202759, -10.620117, -73.364258, 9.704590
1632842, 0.168945, 1.073853, -0.207031, -3.234864, -78.491211, -6.347658
1632862, -0.113159, 1.010010, -0.464111, -2.502441, -68.359375, -18.859863
1632882, -0.306396, 0.995605, -0.513062, -19.042969, -39.550781, -9.826660
1632902, -0.324219, 0.996338, -0.413696, -18.676758, 4.760742, 2.258301
1632922, -0.189819, 0.961914, -0.412476, -16.906738, 21.850586, 24.658211
1632942, 0.073364, 0.919556, -0.408813, -14.038090, 37.414551, 39.733887
1632962, 0.211182, 0.898438, -0.401001, -10.009766, 38.574219, 42.602539
1632982, 0.279785, 0.842041, -0.457886, -6.286623, 43.457031, 42.907715
1633002, 0.376221, 0.776245, -0.517456, -10.009766, 47.485367, 48.156754
1633022, 0.545776, 0.752319, -0.569458, -19.836426, 38.940430, 47.302261
1633042, 0.726440, 0.748291, -0.598389, -35.522461, 26.367195, 31.860359
1633062, 0.743164, 0.717163, -0.521973, -47.119156, 24.536140, 10.498047
1633082, 0.688843, 0.762695, -0.420288, -42.785645, 2.685547, 0.183106
1633102, 0.722778, 0.771240, -0.389038, -33.996582, -8.300781, -11.352543
1633122, 0.644653, 0.827393, -0.292480, -22.338875, -6.713869, -29.724129
1633142, 0.415161, 0.854370, -0.213013, 1.403809, 4.394531, -34.240723
1633162, 0.418823, 0.879883, -0.165649, 20.263672, 6.652834, -31.066902
1633182, 0.394043, 0.844238, -0.184814, 33.142090, 14.160160, -27.160652
1633202, 0.448975, 0.819580, -0.252441, 30.700691, 26.733406, -19.287109
1633222, 0.532349, 0.829834, -0.121582, 24.536140, 31.066902, -12.084965
1633242, 0.553833, 0.866577, -0.032471, 26.794441, 27.771004, -8.728027
1633262, 0.642578, 0.856689, -0.072388, 17.517090, 26.550301, -10.986328
1633282, 0.637573, 0.909790, -0.025024, 9.277344, 14.282230, -20.141602
1633302, 0.589111, 0.909912, 0.019653, 5.371094, -2.990724, -26.672371
1633322, 0.549927, 0.953857, -0.002686, -3.540040, -30.761726, -48.828140
1633342, 0.273560, 0.999390, 0.168579, 17.333984, -42.358398, -51.696793
1633362, 0.049072, 0.974121, 0.034790, 50.720230, -29.663094, -34.484863
1633382, 0.037231, 0.893433, -0.296753, 59.631363, -10.437012, -13.427738
1633402, 0.088745, 0.863892, -0.417480, 52.246109, 12.512211, 5.065918
1633422, 0.238770, 0.846924, -0.519531, 38.024902, 25.024422, 16.723633
1633442, 0.413086, 0.831787, -0.525391, 15.380863, 25.207527, 15.197758
1633462, 0.448364, 0.853149, -0.384644, 7.324221, 14.038090, 11.474613
1633482, 0.449463, 0.863281, -0.358643, 6.164553, 6.774904, 7.873537
1633502, 0.471802, 0.859619, -0.387939, 1.403809, 3.234864, 0.610352
1633522, 0.431763, 0.881958, -0.316284, -3.417970, -11.108402, -8.544922
1633542, 0.369019, 0.886475, -0.310669, -1.831055, -16.906738, -9.826660
1633562, 0.366821, 0.878906, -0.343262, -2.502441, -19.104004, -10.009766
1633582, 0.350586, 0.881226, -0.344482, -4.638672, -18.981934, -10.864258
1633602, 0.337524, 0.888916, -0.324219, -5.126953, -17.700195, -10.925293
1633622, 0.322632, 0.890259, -0.324585, -5.004883, -14.953617, -10.986328
1633642, 0.289551, 0.897339, -0.310791, -4.272461, -13.610844, -8.911133
1633662, 0.255981, 0.901611, -0.304688, -2.380371, -9.216309, -4.821777
1633682, 0.272217, 0.900024, -0.314697, -0.793457, -1.770020, -0.976563
1633702, 0.318237, 0.894653, -0.331543, -0.671387, 4.333496, 1.464844
1633722, 0.341431, 0.896240, -0.317261, -0.732422, 3.540040, 0.915528
1633742, 0.344238, 0.898071, -0.306152, 0.305176, 1.831055, -0.061035
