timestamp,ax,ay,az,gx,gy,gz
1162357, 0.259155, 0.926514, -0.249146, 3.906251, -0.854492, 0.854492
1162377, 0.288208, 0.935059, -0.221436, 1.525879, 0.488281, 2.685547
1162397, 0.299194, 0.935791, -0.203979, 0.610352, 0.427246, 2.807618
1162417, 0.308105, 0.939575, -0.184937, 1.770020, -0.122070, 2.868653
1162437, 0.319702, 0.938110, -0.197266, 2.929688, -0.854492, 1.953125
1162457, 0.327026, 0.935913, -0.205933, 2.990724, -3.662110, 0.671387
1162477, 0.295776, 0.933716, -0.208374, 3.051759, -5.676271, 0.244141
1162497, 0.270264, 0.935181, -0.210693, 2.624512, -3.295899, 1.831055
1162517, 0.288574, 0.932129, -0.217285, 2.441406, -0.244141, 3.417970
1162537, 0.312622, 0.933228, -0.209106, 1.464844, -0.976563, 3.173829
1162557, 0.318970, 0.935425, -0.200928, 2.014160, -1.831055, 2.929688
1162577, 0.325317, 0.935425, -0.198853, 2.929688, -2.685547, 1.464844
1162597, 0.316162, 0.933960, -0.211792, 3.601075, -2.746582, 0.610352
1162617, 0.313477, 0.927734, -0.227173, 2.868653, -2.502441, 0.000000
1162637, 0.298096, 0.930908, -0.219360, 1.892090, -3.051759, 0.244141
1162657, 0.288086, 0.935059, -0.209839, 2.258301, -2.807618, 1.708985
1162677, 0.302368, 0.932861, -0.223633, 2.258301, -1.525879, 2.441406
1162697, 0.293335, 0.937988, -0.218994, 1.892090, 1.159668, 2.624512
1162717, 0.274536, 0.939209, -0.218018, 2.136230, 6.103518, 6.103518
1162737, 0.255493, 0.951538, -0.209961, 2.319336, 9.887695, 9.460449
1162757, 0.248657, 0.962158, -0.160278, 5.554201, 14.953617, 15.319828
1162777, 0.329712, 0.956299, -0.126953, 12.634281, 16.662598, 18.615723
1162797, 0.455078, 0.972534, -0.176270, 22.033691, 8.056641, 10.864258
1162817, 0.360962, 1.046143, -0.351440, 23.437508, -6.164553, 6.103518
1162837, 0.283203, 1.135010, -0.361450, 21.789551, -17.456055, 10.559082
1162857, 0.234253, 1.107788, -0.316772, 34.484863, -19.958496, 0.793457
1162877, 0.154541, 1.044312, -0.434937, 46.020523, -8.666992, -14.831547
1162897, 0.101440, 0.951538, -0.493408, 49.011246, 2.502441, -29.052742
1162917, 0.070679, 0.813599, -0.507813, 43.945313, 13.916019, -35.217285
1162937, 0.087280, 0.715576, -0.516113, 34.057617, 15.686039, -33.569336
1162957, 0.123779, 0.715698, -0.460815, 23.498543, 21.789551, -34.240723
1162977, 0.149048, 0.710449, -0.390991, 19.104004, 20.141602, -30.761726
1162997, 0.173584, 0.685791, -0.356323, 13.854984, 18.188477, -24.292000
1163017, 0.207886, 0.698242, -0.356201, 0.122070, 22.705086, -18.066406
1163037, 0.253662, 0.763550, -0.272217, -14.953617, 27.465828, -1.831055
1163077, 0.448242, 0.860596, -0.068481, -19.531250, 28.381355, 46.752945
1163097, 0.530151, 0.900391, -0.127197, -27.954109, 38.330078, 66.955566
1163117, 0.685791, 0.937256, -0.081909, -32.592773, 38.818359, 71.655273
1163137, 0.787964, 0.915771, -0.006470, -24.963387, 21.545410, 62.683121
1163157, 0.795166, 0.892822, -0.033081, -13.122562, 0.305176, 37.658691
1163177, 0.723755, 0.866821, -0.184082, -11.718754, -9.643555, 0.488281
1163197, 0.640381, 0.997803, -0.251465, -13.427738, -24.353035, -28.442390
1163217, 0.511475, 1.022095, -0.207397, -6.286623, -40.222168, -43.151855
1163237, 0.318726, 0.959473, -0.244141, -3.112794, -59.509293, -38.757324
1163257, 0.142090, 0.901367, -0.300049, -5.310059, -48.400894, -26.977547
1163277, 0.134033, 0.902344, -0.277222, -7.568361, -20.874023, -13.549809
1163297, 0.287842, 0.915771, -0.271851, -7.995607, 4.638672, -2.136230
1163317, 0.377075, 0.912720, -0.261230, -8.605957, 2.685547, -1.708985
1163337, 0.391724, 0.916504, -0.243774, -8.850098, -2.990724, -5.249023
1163357, 0.331787, 0.931641, -0.199341, -6.469728, -6.408693, -6.042482
1163377, 0.319824, 0.936523, -0.186401, -0.854492, -5.065918, -4.821777
1163397, 0.320313, 0.927856, -0.224487, 2.746582, -3.906251, -3.967286
1163417, 0.295288, 0.920776, -0.251221, 3.479005, -4.333496, -1.892090
1163437, 0.287598, 0.915161, -0.254517, 3.356935, -3.112794, 1.831055
1163457, 0.302612, 0.916748, -0.254883, 3.112794, -0.610352, 4.211426
1163477, 0.326538, 0.915405, -0.258423, 3.601075, 0.366211, 6.774904
1163497, 0.342896, 0.909790, -0.260864, 2.990724, 0.976563, 6.652834
1163517, 0.351929, 0.908936, -0.257935, 2.807618, 1.525879, 5.798342
1163537, 0.369263, 0.907471, -0.266724, 2.197266, 1.464844, 3.967286
1163557, 0.363770, 0.910400, -0.259888, 1.647950, 0.244141, 2.075195
1163577, 0.339355, 0.908691, -0.262207, 1.159668, -0.671387, 1.770020
1163597, 0.327759, 0.910278, -0.256348, 1.037598, -0.305176, 2.868653
1163617, 0.344849, 0.909302, -0.252319, 1.403809, 0.793457, 3.601075
1163637, 0.361572, 0.907349, -0.255615, 1.647950, -0.488281, 2.990724
1163657, 0.358398, 0.906128, -0.265503, 1.647950, -1.892090, 2.319336
1163677, 0.350586, 0.902344, -0.270142, -0.244141, -1.647950, 1.647950
1163697, 0.352051, 0.908447, -0.255371, -0.671387, -1.770020, 1.831055
1163717, 0.357178, 0.908203, -0.249756, 0.000000, -1.647950, 1.342773
1163737, 0.358398, 0.909180, -0.244385, 1.098633, -2.380371, 0.854492
1163757, 0.359863, 0.906982, -0.253174, 1.708985, -3.479005, 0.427246
1163777, 0.354736, 0.904541, -0.256226, 2.258301, -3.479005, 0.000000
1163797, 0.345703, 0.905396, -0.264526, 2.197266, -3.601075, 0.061035
1163817, 0.351929, 0.904053, -0.271973, 1.892090, -3.845216, 0.122070
1163837, 0.346924, 0.903198, -0.272095, 0.671387, -2.380371, -0.122070
1163857, 0.349854, 0.904663, -0.267090, 0.305176, -0.732422, 0.488281
1163877, 0.359985, 0.906128, -0.260376, 0.305176, -0.854492, -0.244141
1163897, 0.355347, 0.907349, -0.254883, 0.793457, -2.441406, -0.549316
1163917, 0.338013, 0.900269, -0.258057, 1.342773, -3.906251, 0.061035
1163937, 0.300293, 0.895264, -0.236572, 0.854492, -1.342773, 7.812502
1163957, 0.345581, 0.892944, -0.250000, 1.770020, 2.624512, 12.939457
1163977, 0.401855, 0.904419, -0.254883, 2.319336, 3.540040, 11.657719
1163997, 0.420044, 0.895386, -0.264526, 2.563477, 0.366211, 7.263186
1164017, 0.414673, 0.867920, -0.262939, 1.220703, -1.281738, 7.202150
1164037, 0.423340, 0.871094, -0.250366, -0.305176, -1.708985, 9.826660
1164057, 0.463867, 0.880127, -0.257324, 0.854492, -2.502441, 6.103518
1164077, 0.476929, 0.881592, -0.280151, 0.305176, -4.882813, 0.061035
1164097, 0.473877, 0.896240, -0.299683, -2.258301, -12.634281, -8.605957
1164117, 0.423828, 0.897583, -0.290161, -3.662110, -19.226074, -17.761230
1164137, 0.367920, 0.907715, -0.268677, -3.234864, -19.897461, -22.399910
1164157, 0.323608, 0.909546, -0.290161, -3.173829, -19.775391, -24.230965
1164177, 0.280640, 0.916382, -0.319214, -5.432129, -22.094727, -24.475105
1164197, 0.186890, 0.916382, -0.335449, -9.033203, -18.432617, -22.033691
1164217, 0.126831, 0.919312, -0.333374, -13.244633, -10.131836, -14.709476
1164237, 0.111572, 0.917969, -0.274536, -17.822266, 7.507326, 5.981447
1164257, 0.180298, 0.915161, -0.264282, -18.249512, 14.526371, 19.348145
1164277, 0.279541, 0.912720, -0.260986, -19.348145, 19.470215, 25.695808
1164297, 0.372559, 0.904785, -0.254639, -21.118164, 23.315437, 25.146492
1164317, 0.415894, 0.906738, -0.259521, -23.559578, 22.521980, 20.324707
1164337, 0.470459, 0.960693, -0.183716, -20.568848, 12.634281, 12.023930
1164357, 0.346191, 1.016357, -0.081665, 6.896975, -6.774904, -6.042482
1164377, 0.275024, 0.969360, -0.275146, 21.789551, 1.159668, -14.099125
1164397, 0.236938, 0.945801, -0.375488, 24.719246, 5.737307, -25.878914
1164417, 0.139404, 0.955078, -0.395630, 22.155769, 3.540040, -26.428230
1164437, 0.050903, 0.935059, -0.400879, 17.150879, 27.282722, -22.521980
1164457, 0.060181, 0.906860, -0.338745, 15.014652, 53.894058, -13.427738
1164477, 0.181030, 0.890625, -0.261230, 17.456055, 66.650391, -1.770020
1164497, 0.386841, 0.857178, -0.250977, 14.282230, 69.335938, 3.112794
1164517, 0.619751, 0.905396, -0.182129, 9.399414, 53.894058, 3.845216
1164537, 0.684814, 0.868408, -0.119019, 8.789063, 33.874512, -6.774904
1164557, 0.674194, 0.910400, -0.094849, 3.967286, 7.995607, -19.592285
1164577, 0.428711, 0.849854, -0.120850, -7.385256, 0.244141, -16.967773
1164597, 0.435913, 0.888184, -0.012329, -24.597176, -0.305176, -3.967286
1164617, 0.549438, 1.052368, 0.307373, -4.882813, -20.385742, -3.051759
1164637, 0.386475, 1.026855, 0.245850, 40.893555, -33.386230, -12.207035
1164657, 0.234863, 0.949463, -0.079712, 63.476578, -30.578621, -11.291508
1164677, 0.113525, 0.921387, -0.402466, 56.457535, -19.775391, -7.873537
1164697, 0.122681, 0.900391, -0.610718, 8.178711, 6.835939, -12.329105
1164717, 0.073486, 0.993896, -0.292236, -18.859863, 19.165039, -10.986328
1164737, 0.148438, 1.000977, -0.189697, -18.432617, 20.874023, -10.498047
1164757, 0.247070, 0.965942, -0.223999, -17.456055, 16.479492, -16.784668
1164777, 0.240234, 0.932007, -0.193970, -14.648441, 10.314941, -19.165039
1164797, 0.231689, 0.968506, -0.085205, 0.793457, 1.525879, -7.019045
1164817, 0.331177, 0.902588, -0.248047, 18.798828, 7.629396, 3.356935
1164837, 0.426880, 0.859253, -0.369385, 15.625004, 8.117676, 4.394531
1164857, 0.492676, 0.832886, -0.417236, 7.568361, 0.427246, 0.549316
1164877, 0.482178, 0.830200, -0.385986, 2.746582, -5.371094, -0.183106
1164897, 0.453369, 0.847778, -0.330200, 6.347658, -6.835939, 2.502441
1164917, 0.507446, 0.854492, -0.350220, 12.329105, -6.347658, 1.159668
1164937, 0.612793, 0.841675, -0.530884, 2.441406, -7.202150, -16.418457
1164957, 0.650635, 0.840820, -0.527100, -22.766121, -26.184090, -42.968750
1164977, 0.517456, 0.862793, -0.387573, -40.283203, -61.828629, -59.265152
1164997, 0.027832, 0.923462, -0.010742, -41.564941, -46.386734, -18.005371
1165017, 0.085449, 0.978882, 0.059937, -17.272949, -24.841316, 7.202150
1165037, 0.146118, 0.953979, 0.001465, -5.310059, 8.789063, 35.705566
1165057, 0.429810, 0.976807, -0.025391, 1.342773, 12.756351, 40.466309
1165077, 0.580322, 0.990479, -0.109985, 4.394531, -11.108402, 19.042969
1165097, 0.463745, 0.938721, -0.180054, -0.671387, -37.536621, -4.638672
1165117, 0.222534, 0.964233, -0.148315, -7.873537, -46.997086, -7.751467
1165137, 0.057251, 0.981812, -0.091431, -7.202150, -43.090820, 2.319336
1165157, 0.001953, 0.984619, -0.120850, -7.202150, -23.681648, 18.615723
1165177, 0.109253, 1.012085, -0.139893, -3.784181, -19.531250, 20.812988
1165197, 0.159668, 1.009766, -0.185547, -3.906251, -23.559578, 13.793949
1165217, 0.104858, 1.002319, -0.221436, -4.028320, -23.681648, 9.216309
1165237, 0.045532, 0.989746, -0.237549, -5.371094, -21.118164, 9.643555
1165257, 0.083618, 0.992554, -0.250488, -7.324221, -15.075687, 9.216309
1165277, 0.064941, 0.972778, -0.262695, -6.774904, -8.911133, 10.131836
1165297, 0.108887, 0.979736, -0.273193, -4.821777, -5.187988, 12.268070
1165317, 0.125977, 0.960327, -0.321533, -4.577637, -0.549316, 11.047363
1165337, 0.121948, 0.949463, -0.325195, -3.356935, 4.089355, 12.512211
1165357, 0.145874, 0.939941, -0.371460, -4.333496, 6.958010, 13.305668
1165377, 0.167847, 0.924438, -0.365845, -8.056641, 15.380863, 13.549809
1165397, 0.167969, 0.932007, -0.369995, -6.591799, 22.827156, 14.587406
1165417, 0.146729, 0.891968, -0.343872, -5.187988, 36.682129, 24.414070
1165437, 0.210571, 0.878418, -0.352783, -3.662110, 45.104996, 36.621094
1165457, 0.307373, 0.864136, -0.383545, -7.629396, 55.358902, 43.334961
1165477, 0.403809, 0.848145, -0.381592, -15.075687, 62.011734, 40.588379
1165497, 0.468750, 0.877563, -0.340332, -21.240234, 66.894531, 32.348633
1165517, 0.616333, 0.921265, -0.214111, -20.385742, 60.546890, 20.935059
1165537, 0.609375, 0.916260, -0.182373, -10.437012, 51.452652, -0.427246
1165557, 0.603882, 0.891968, -0.159180, -2.868653, 38.146973, -14.038090
1165577, 0.415039, 0.845337, -0.188477, -3.356935, 40.161133, -19.104004
1165597, 0.426758, 0.878906, -0.111084, -6.835939, 47.546402, -10.070801
1165617, 0.473145, 0.915283, -0.025269, 4.821777, 45.227066, -15.075687
1165637, 0.558716, 0.893677, -0.089844, 10.803223, 45.043961, -22.766121
1165657, 0.601807, 0.891846, -0.069214, 13.183598, 30.151375, -29.602058
1165677, 0.549805, 0.897949, -0.083984, 15.197758, 14.770512, -38.635254
1165697, 0.453247, 0.888184, -0.088379, 13.916019, 5.920412, -43.701172
1165717, 0.359741, 0.879395, -0.094360, 9.460449, 6.225588, -38.696289
1165737, 0.374878, 0.898193, -0.034790, 7.019045, 2.441406, -30.334480
1165757, 0.312256, 0.940430, 0.003296, 18.676758, -13.244633, -10.986328
1165777, 0.358154, 0.952393, -0.078857, 20.324707, -9.094238, -3.906251
1165797, 0.311646, 0.932617, -0.098389, 19.470215, -7.324221, -3.295899
1165817, 0.324585, 0.948975, -0.110107, 17.395020, -7.141115, -1.708985
1165837, 0.321899, 0.937744, -0.151611, 8.605957, -13.793949, -3.906251
1165857, 0.256104, 0.976807, -0.087402, 3.173829, -18.432617, -4.455566
1165877, 0.250000, 0.997559, -0.037842, 3.051759, -20.690918, -6.530764
1165897, 0.267334, 0.989380, -0.029785, 5.065918, -24.108894, -10.559082
1165917, 0.237183, 0.994995, -0.064575, 6.469728, -30.212410, -16.662598
1165937, 0.140625, 0.992432, -0.062866, 9.155273, -27.221687, -18.432617
1165957, 0.077637, 0.976807, -0.066406, 26.611336, -1.953125, -1.464844
1165977, 0.149536, 0.942749, -0.213013, 29.235847, 14.343266, 8.300781
1165997, 0.273438, 0.927856, -0.263550, 25.329597, 23.071297, 11.474613
1166017, 0.360596, 0.920532, -0.284790, 18.676758, 17.883301, 8.972168
1166037, 0.389526, 0.914917, -0.295166, 11.962894, 9.277344, 2.929688
1166057, 0.374146, 0.917480, -0.290894, 4.638672, 2.929688, -3.784181
1166077, 0.350220, 0.927246, -0.253662, -0.122070, -2.624512, -8.666992
1166097, 0.310181, 0.939941, -0.216675, -1.953125, -7.019045, -11.657719
1166117, 0.267944, 0.953613, -0.172974, 0.061035, -7.507326, -11.657719
1166137, 0.244507, 0.945435, -0.205811, 3.845216, -6.896975, -9.216309
1166157, 0.235718, 0.950317, -0.203247, 4.638672, -5.615236, -7.202150
1166177, 0.224854, 0.951050, -0.206787, 6.103518, -2.075195, -4.516602
1166197, 0.241333, 0.941040, -0.229370, 6.286623, 0.732422, -2.563477
1166217, 0.259888, 0.942749, -0.232300, 5.187988, 1.037598, -1.647950
1166237, 0.273560, 0.944946, -0.230103, 5.065918, -1.220703, -1.342773
