timestamp,ax,ay,az,gx,gy,gz
2267157, 0.402344, 0.808716, -0.428345, -9.460449, 8.728027, -2.868653
2267177, 0.353271, 0.812256, -0.408325, 7.019045, -3.540040, -2.563477
2267197, 0.453125, 0.807617, -0.468628, -0.854492, -1.281738, -1.403809
2267217, 0.419922, 0.801880, -0.437256, -0.488281, -2.807618, -2.319336
2267237, 0.416626, 0.797119, -0.478638, -2.441406, -3.051759, -0.549316
2267257, 0.441406, 0.798706, -0.434692, -3.845216, -11.779789, -0.610352
2267277, 0.443481, 0.804932, -0.440063, -4.394531, -13.549809, 0.793457
2267297, 0.426025, 0.809814, -0.401978, -3.173829, -20.263672, 0.793457
2267317, 0.444214, 0.818604, -0.425415, -4.943848, -19.104004, 0.915528
2267337, 0.464233, 0.846802, -0.415161, -7.141115, -25.939949, -4.150391
2267357, 0.284302, 0.827759, -0.384033, -5.310059, -30.639656, 3.784181
2267377, 0.275635, 0.848877, -0.378418, -5.554201, -18.798828, 12.146000
2267397, 0.345459, 0.836548, -0.410522, -5.249023, -7.629396, 15.563969
2267417, 0.423218, 0.838501, -0.383179, -4.272461, -1.464844, 15.808109
2267437, 0.456421, 0.847290, -0.385254, -0.549316, -6.408693, 9.887695
2267457, 0.419678, 0.836914, -0.412598, 4.150391, -14.526371, 2.929688
2267477, 0.331421, 0.833740, -0.439819, 5.310059, -14.404301, 1.708985
2267497, 0.301514, 0.824341, -0.471558, 8.178711, -8.789063, 2.502441
2267517, 0.326904, 0.805542, -0.521240, 4.089355, 0.793457, 5.615236
2267537, 0.349731, 0.798218, -0.496338, 1.831055, 5.615236, 5.493164
2267557, 0.370361, 0.791992, -0.496704, 2.868653, 5.981447, 6.286623
2267577, 0.405396, 0.793701, -0.498047, 1.037598, 6.835939, 6.286623
2267597, 0.428223, 0.803467, -0.467896, -1.525879, 5.493164, 4.577637
2267617, 0.423340, 0.809082, -0.446045, -1.586915, 4.516602, 3.051759
2267637, 0.406128, 0.811035, -0.436035, -1.098633, 1.953125, 2.258301
2267657, 0.383423, 0.815063, -0.418457, 0.793457, 1.464844, 3.540040
2267677, 0.385986, 0.816406, -0.407959, 3.967286, 1.464844, 5.554201
2267697, 0.412842, 0.822510, -0.447876, 2.319336, 4.516602, 5.981447
2267717, 0.453369, 0.821411, -0.442993, -1.586915, 4.028320, 2.929688
2267737, 0.414429, 0.818970, -0.435059, -1.647950, 2.197266, 1.281738
2267757, 0.434937, 0.813110, -0.413574, 0.000000, -2.746582, -1.647950
2267777, 0.437012, 0.802246, -0.429199, 0.549316, -5.371094, -3.234864
2267797, 0.397949, 0.802612, -0.454346, 2.502441, -4.882813, -2.136230
2267817, 0.404785, 0.802002, -0.459839, 0.610352, -3.051759, -2.319336
2267837, 0.398926, 0.795776, -0.486084, -0.488281, 0.671387, -1.403809
2267857, 0.382080, 0.797119, -0.446777, 2.563477, -1.464844, -0.183106
2267877, 0.403687, 0.793335, -0.444824, 1.831055, -3.173829, 0.183106
2267897, 0.380005, 0.797119, -0.486328, 2.929688, 1.892090, 3.417970
2267917, 0.417969, 0.800659, -0.459351, -1.770020, 3.906251, 2.624512
2267937, 0.393677, 0.801758, -0.444580, -0.610352, 7.202150, 3.601075
2267957, 0.442505, 0.818604, -0.470459, -0.854492, 7.385256, 2.319336
2267977, 0.402344, 0.806641, -0.422363, -0.854492, 1.464844, 0.366211
2267997, 0.420776, 0.806763, -0.445801, -1.708985, 3.662110, -0.183106
2268017, 0.385742, 0.827271, -0.439453, 0.305176, 7.202150, 0.244141
2268037, 0.436279, 0.816284, -0.439697, -1.953125, 4.333496, -4.760742
2268057, 0.389282, 0.820068, -0.436768, -0.549316, 2.319336, -3.906251
2268077, 0.390015, 0.799561, -0.443359, 0.061035, 1.464844, -2.014160
2268097, 0.399414, 0.807129, -0.464966, -0.061035, 5.065918, -2.746582
2268117, 0.439575, 0.804077, -0.492310, 0.305176, 7.141115, -5.310059
2268137, 0.353760, 0.813599, -0.433472, 3.112794, 7.080080, -4.028320
2268157, 0.417847, 0.796997, -0.485229, 1.464844, 7.446291, -7.995607
2268177, 0.434814, 0.826172, -0.486450, 3.479005, 12.695316, -10.253906
2268197, 0.464478, 0.813843, -0.470947, 3.173829, 4.272461, -19.287109
2268217, 0.383423, 0.791504, -0.479858, 6.713869, 0.671387, -24.780281
2268237, 0.357300, 0.773193, -0.462402, 7.263186, 2.075195, -19.531250
2268257, 0.399780, 0.746216, -0.507080, 4.394531, 8.178711, -9.887695
2268277, 0.502197, 0.758545, -0.470215, -3.784181, 8.972168, -3.967286
2268297, 0.824097, 0.789185, -0.369873, -10.498047, -7.324221, -18.066406
2268317, 0.636963, 0.788086, -0.317505, -2.624512, -45.898453, -32.714844
2268337, 0.305908, 0.834839, -0.301392, 3.417970, -59.753433, -24.536140
2268357, 0.172363, 0.895630, -0.279053, 9.338379, -53.283707, -7.629396
2268377, 0.076904, 0.922119, -0.258301, 13.427738, -39.611816, 5.432129
2268397, 0.094604, 0.902832, -0.352661, 16.662598, -8.972168, 27.343758
2268417, 0.419678, 0.894653, -0.440063, 2.258301, 6.774904, 27.587898
2268437, 0.531372, 0.855225, -0.415161, -4.150391, 4.455566, 12.512211
2268457, 0.618896, 0.794312, -0.430298, -5.615236, -8.544922, 0.976563
2268477, 0.684814, 0.743408, -0.520508, 2.258301, -31.555183, -12.878422
2268497, 0.414917, 0.673096, -0.510620, -8.056641, -61.401382, -6.958010
2268517, 0.348999, 0.730469, -0.583740, -10.070801, -51.818863, 11.352543
2268537, 0.265747, 0.820313, -0.623535, -9.094238, -48.400894, 0.549316
2268557, 0.097900, 0.843506, -0.574951, -6.713869, -35.400391, -1.770020
2268577, 0.150024, 0.873901, -0.612183, -9.277344, -33.081055, -14.587406
2268597, 0.108643, 0.870605, -0.579834, -13.488773, -29.602058, -23.071297
2268617, -0.009399, 0.867798, -0.494995, -18.188477, -18.676758, -17.395020
2268637, -0.013062, 0.870972, -0.397827, -13.732914, 4.638672, 2.868653
2268657, 0.146851, 0.869507, -0.389160, -7.080080, 20.019531, 16.479492
2268677, 0.255615, 0.853027, -0.404419, 2.929688, 26.489265, 25.024422
2268697, 0.320435, 0.840088, -0.432495, 6.103518, 24.658211, 26.794441
2268717, 0.400024, 0.831299, -0.457520, 7.812502, 22.094727, 24.658211
2268737, 0.511230, 0.816284, -0.492676, 6.774904, 18.554688, 15.319828
2268757, 0.515381, 0.805542, -0.525146, 2.563477, 8.422852, 1.831055
2268777, 0.460205, 0.804810, -0.540405, -3.295899, 1.159668, -7.873537
2268797, 0.381592, 0.814575, -0.518188, -8.605957, -4.394531, -12.939457
2268817, 0.328247, 0.826050, -0.486084, -11.596684, -2.380371, -13.366703
2268837, 0.301270, 0.849731, -0.429199, -11.352543, -0.854492, -12.329105
2268857, 0.323975, 0.902954, -0.362183, -4.821777, 7.629396, -12.146000
2268877, 0.593750, 1.370605, 0.061890, 48.339859, 9.948730, -22.277840
2268897, 0.632080, 1.481201, -0.064941, 142.333984, -76.599121, -17.944336
2268937, 0.222656, 0.440186, -0.732910, 83.251953, -163.574219, -83.496094
2268957, -0.307861, 0.507690, -0.638306, 58.166519, -132.751465, -74.218750
2268977, -0.493896, 0.564331, -0.753052, 49.194351, -78.369141, -42.419434
2268997, -0.431274, 0.489990, -0.831299, 30.639656, -20.507813, -19.042969
2269017, -0.276611, 0.410156, -0.846802, 2.380371, 19.836426, -2.624512
2269037, -0.093262, 0.467163, -0.814941, -25.207527, 45.410172, 3.906251
2269077, 0.097656, 0.844482, -0.583862, -31.494148, 66.589355, 25.024422
2269097, 0.256836, 0.847656, -0.591064, -20.996094, 65.673828, 31.738289
2269117, 0.400513, 0.813354, -0.623047, -14.343266, 57.373062, 21.362305
2269137, 0.394043, 0.776611, -0.650391, -14.953617, 44.494644, 2.685547
2269157, 0.303101, 0.753784, -0.623901, -16.906738, 34.912109, -12.146000
2269177, 0.212036, 0.751953, -0.582275, -14.892582, 32.043457, -13.671879
2269197, 0.188232, 0.780518, -0.543457, -10.314941, 38.757324, -3.295899
2269217, 0.243896, 0.774536, -0.541626, -5.920412, 46.203629, 5.554201
2269237, 0.305420, 0.758789, -0.548218, -6.530764, 49.133316, 5.981447
2269257, 0.352661, 0.748901, -0.529785, -7.995607, 45.166031, -2.258301
2269277, 0.366943, 0.798462, -0.498169, -8.972168, 38.696289, -1.647950
2269297, 0.363159, 0.877441, -0.442871, -0.427246, 30.029305, 9.704590
2269317, 0.373901, 0.828003, -0.483765, 4.943848, 25.268562, 16.784668
2269337, 0.402222, 0.787720, -0.509644, -0.732422, 24.047859, 14.587406
2269357, 0.405029, 0.847412, -0.478638, -1.708985, 23.376472, 6.347658
2269377, 0.437378, 0.875854, -0.482422, 1.342773, 16.723633, -3.417970
2269397, 0.401367, 0.896729, -0.487671, 4.821777, 3.967286, -5.371094
2269417, 0.336426, 0.856445, -0.489136, 8.422852, -4.089355, -2.075195
2269437, 0.338501, 0.801636, -0.517090, 2.685547, -1.770020, -8.422852
2269457, 0.325195, 0.806274, -0.496460, 5.310059, -0.915528, -12.878422
2269477, 0.300293, 0.788086, -0.504761, 7.446291, -0.610352, -11.718754
2269497, 0.304321, 0.776855, -0.511963, 7.202150, -3.479005, -7.751467
2269517, 0.284668, 0.775269, -0.510864, 8.544922, -5.554201, -2.868653
2269537, 0.273804, 0.746216, -0.545288, 4.028320, -0.427246, -4.272461
2269557, 0.266602, 0.784180, -0.545410, -3.540040, 5.493164, -5.798342
2269577, 0.290039, 0.866211, -0.504395, 0.000000, 9.277344, 0.610352
2269597, 0.339722, 0.868652, -0.529053, 6.713869, 9.094238, 7.080080
2269617, 0.356079, 0.820313, -0.555786, 7.568361, 4.943848, 8.361816
2269637, 0.359253, 0.763306, -0.554077, 6.652834, -4.272461, 1.220703
2269657, 0.303467, 0.794556, -0.557007, 3.906251, -6.530764, -2.136230
2269677, 0.286377, 0.792603, -0.548462, 4.577637, -4.455566, -0.915528
2269697, 0.312378, 0.779541, -0.558472, 2.258301, -2.807618, 0.244141
2269717, 0.315918, 0.786255, -0.545898, 2.990724, -2.624512, -1.647950
2269737, 0.322266, 0.778564, -0.567139, 1.953125, 0.122070, -7.629396
2269757, 0.311157, 0.804688, -0.573608, 0.366211, -0.793457, -7.873537
2269777, 0.309937, 0.807495, -0.537720, 1.525879, 1.525879, -6.164553
2269797, 0.305664, 0.790161, -0.564697, 0.427246, 1.586915, -5.615236
2269817, 0.290405, 0.798706, -0.544678, -4.943848, 3.234864, -15.014652
2269837, 0.303223, 0.802124, -0.537476, -4.028320, 1.098633, -14.709476
2269857, 0.294800, 0.778564, -0.551025, -2.807618, -1.586915, -14.221195
2269877, 0.245117, 0.724976, -0.579712, -8.605957, -1.586915, -11.230473
2269897, 0.194458, 0.709229, -0.585815, -18.432617, 4.211426, -7.690432
2269917, 0.086304, 0.881226, -0.468750, -17.944336, 7.812502, 8.117676
2269937, 0.167725, 0.837280, -0.583984, -1.708985, 26.306160, 27.771004
2269957, 0.318237, 0.815308, -0.557007, -9.521484, 26.489265, 28.442390
2269977, 0.344116, 0.801147, -0.537109, -9.460449, 27.893074, 27.954109
2269997, 0.401123, 0.809082, -0.511963, -10.070801, 21.850586, 26.367195
2270017, 0.311890, 0.809448, -0.458130, -8.117676, 13.427738, 22.460945
2270037, 0.349243, 0.805298, -0.476196, -5.004883, 21.728516, 24.353035
2270057, 0.443604, 0.792725, -0.502441, -4.577637, 23.742683, 21.240234
2270077, 0.506836, 0.784058, -0.515015, -6.530764, 20.812988, 12.939457
2270097, 0.484375, 0.789063, -0.484131, -7.141115, 13.000492, 6.286623
2270117, 0.526245, 0.791138, -0.484131, -8.300781, -0.244141, -1.831055
2270137, 0.462646, 0.796021, -0.480469, -7.873537, -9.399414, -6.958010
2270157, 0.506836, 0.786377, -0.517090, -9.765625, -15.075687, -13.916019
2270177, 0.503662, 0.776733, -0.533813, -14.465336, -23.376472, -22.521980
2270197, 0.148682, 0.703491, -0.288574, 5.432129, -10.070801, 24.658211
2270217, 0.520020, 0.792480, -0.494995, 11.840824, 1.098633, 39.062500
2270237, 0.661133, 0.813110, -0.571899, 4.272461, -15.808109, 17.089844
2270257, 0.367188, 0.807251, -0.491821, -0.793457, -28.564461, 4.028320
2270277, 0.282593, 0.892456, -0.522461, -2.563477, -20.263672, 1.831055
2270297, 0.316650, 0.904419, -0.515747, -10.803223, -26.000984, -17.578125
2270317, 0.017334, 0.863403, -0.324951, -5.126953, -13.916019, -8.117676
2270337, -0.020630, 0.855835, -0.314087, 10.681152, 11.169437, 19.897461
2270357, 0.146729, 0.817383, -0.390869, 21.972656, 29.541023, 41.687012
2270377, 0.385620, 0.876953, -0.617310, -1.892090, 71.044922, 43.701172
2270397, 0.628784, 0.846436, -0.435059, -21.850586, 36.071777, 15.808109
2270417, 0.625366, 0.847900, -0.428833, -20.568848, 12.084965, 2.685547
2270437, 0.592041, 0.810425, -0.368896, -18.737793, -20.141602, -13.183598
2270457, 0.548340, 0.780640, -0.447510, -17.211914, -26.123055, -20.996094
2270477, 0.420410, 0.761719, -0.459595, -13.305668, -30.761726, -22.583015
2270497, 0.348511, 0.741821, -0.489624, -11.108402, -25.634773, -16.418457
2270517, 0.355103, 0.729126, -0.543701, -7.446291, -12.084965, -9.643555
2270537, 0.331421, 0.745117, -0.542847, -7.446291, -1.953125, -4.699707
2270557, 0.230225, 0.729492, -0.505005, 1.403809, 3.784181, 9.643555
2270657, 0.309448, 0.830200, -0.494263, 15.075687, 19.592285, -8.666992
2270677, 0.340942, 0.736084, -0.430542, 8.300781, 29.724129, 2.075195
2270697, 0.585083, 0.689209, -0.322754, -0.061035, 50.781265, 24.108894
2270717, 0.942139, 0.705688, -0.176758, -0.305176, 34.118652, 24.353035
2270737, 1.386108, 0.791748, -0.195679, 16.479492, -31.250008, -16.662598
2270757, 1.149658, 0.769531, -0.239380, 30.029305, -114.868195, -68.054199
2270777, 0.236694, 0.614868, -0.477905, -26.000984, -116.333038, -47.119156
2270797, 0.013428, 0.732666, -0.375122, -30.273445, -80.993652, 10.742188
2270817, 0.251831, 0.841187, -0.403076, -17.700195, -57.373062, 24.169930
2270837, 0.154541, 0.911133, -0.505005, 0.549316, -44.128418, 14.892582
2270857, 0.072510, 0.882935, -0.671021, 9.155273, -36.254883, -9.948730
2270877, -0.104126, 0.807983, -0.738647, 9.094238, -12.207035, -17.395020
2270897, -0.082886, 0.771851, -0.664307, -5.187988, 23.864754, 10.131836
2270917, 0.187866, 0.798950, -0.505737, -11.291508, 48.522964, 28.503426
2270937, 0.421875, 0.809082, -0.425293, -8.972168, 53.833023, 30.151375
2270957, 0.586426, 0.806030, -0.415405, -1.159668, 30.029305, 16.357422
2270977, 0.570190, 0.798584, -0.446899, 1.770020, 9.033203, 5.432129
2270997, 0.504028, 0.793579, -0.468628, 2.807618, -3.234864, -2.868653
2271017, 0.422363, 0.790894, -0.485718, 2.441406, -6.896975, -6.896975
2271037, 0.379150, 0.789063, -0.504639, 0.732422, -5.065918, -7.019045
2271057, 0.342285, 0.793213, -0.498901, -1.464844, -1.403809, -4.638672
2271077, 0.358276, 0.797607, -0.483521, -2.624512, 1.586915, -1.831055
