timestamp,ax,ay,az,gx,gy,gz
1116111, 0.478271, 0.523560, -0.723267, -0.305176, -1.892090, 0.000000
1116131, 0.472900, 0.520508, -0.723511, -0.183106, -1.831055, -1.464844
1116151, 0.475952, 0.521973, -0.722534, 0.000000, -1.586915, -1.342773
1116171, 0.483032, 0.528198, -0.718628, 0.488281, -1.892090, -1.281738
1116191, 0.489990, 0.529663, -0.718506, 1.342773, -3.112794, -1.892090
1116211, 0.502075, 0.524780, -0.714111, 2.136230, -3.601075, -1.464844
1116231, 0.488525, 0.509766, -0.705078, 1.464844, -1.831055, -1.342773
1116251, 0.492188, 0.510742, -0.705444, 1.953125, -0.732422, -1.586915
1116271, 0.485107, 0.518921, -0.718262, 1.403809, -0.915528, -2.380371
1116291, 0.469116, 0.537598, -0.728394, 1.159668, -0.793457, -1.403809
1116311, 0.470825, 0.530151, -0.727783, 1.403809, -0.549316, 0.244141
1116331, 0.469727, 0.518921, -0.723022, 1.647950, -0.854492, -1.159668
1116351, 0.467285, 0.516968, -0.728149, 1.464844, -0.976563, -2.075195
1116371, 0.475952, 0.532471, -0.733276, 0.610352, -0.732422, -1.159668
1116451, 0.478149, 0.527466, -0.730103, -0.366211, -0.244141, -1.220703
1116471, 0.469727, 0.529541, -0.714722, 0.549316, 0.610352, 0.305176
1116491, 0.475220, 0.522583, -0.729614, 0.732422, 0.427246, -0.122070
1116551, 0.481323, 0.525024, -0.724365, -1.098633, 0.183106, -0.366211
1116571, 0.479980, 0.530029, -0.712158, -0.549316, 0.122070, -0.244141
1116511, 0.470337, 0.520386, -0.727295, -0.061035, -0.610352, -0.671387
1116531, 0.470215, 0.523315, -0.723999, -0.427246, -0.183106, -0.671387
1116591, 0.484131, 0.524048, -0.719604, -0.610352, -0.366211, -0.671387
1116611, 0.477173, 0.523804, -0.719849, -0.488281, -0.244141, -1.220703
1116631, 0.476685, 0.519775, -0.724731, -1.098633, -0.244141, -1.525879
1116651, 0.474609, 0.521851, -0.722290, -1.342773, 1.037598, -0.854492
1116671, 0.477173, 0.532593, -0.719727, -1.586915, -0.610352, -1.281738
1116691, 0.468750, 0.540039, -0.707153, 0.183106, -0.244141, -1.281738
1116711, 0.486816, 0.526978, -0.727905, 0.610352, -0.183106, -1.647950
1116731, 0.475220, 0.523438, -0.713135, -0.854492, -0.244141, -0.793457
1116751, 0.481323, 0.530762, -0.713867, -0.732422, 0.061035, -0.061035
1116771, 0.473877, 0.528687, -0.714478, -0.305176, 0.427246, -0.488281
1116791, 0.477905, 0.533813, -0.719604, -0.427246, 0.244141, -0.366211
1116811, 0.478760, 0.538574, -0.713989, -0.061035, -0.732422, -0.305176
1116831, 0.474731, 0.530762, -0.716309, 0.244141, -0.183106, 0.244141
1116851, 0.479492, 0.520386, -0.722534, -0.854492, -0.305176, -0.122070
1116871, 0.477417, 0.524902, -0.714600, -1.098633, -0.671387, -1.525879
1116891, 0.468506, 0.531006, -0.716309, -1.098633, 0.732422, -0.732422
1116911, 0.486084, 0.544189, -0.716309, -0.915528, 0.244141, 0.122070
1116931, 0.482422, 0.534790, -0.707031, 0.244141, -0.061035, -0.183106
1116951, 0.474731, 0.519043, -0.744507, -0.244141, 0.305176, -0.549316
1116971, 0.470215, 0.532593, -0.711670, -0.671387, 0.244141, 0.305176
1116991, 0.475586, 0.512817, -0.697144, 0.427246, -2.441406, 2.075195
1117011, 0.444092, 0.543091, -0.724243, 3.173829, -3.967286, 8.972168
1117031, 0.548096, 0.534668, -0.733643, -3.234864, -2.624512, -1.220703
1117051, 0.454224, 0.547729, -0.688843, 1.037598, 0.610352, -0.122070
1117071, 0.476196, 0.526611, -0.732544, 0.549316, -0.549316, -0.244141
1117091, 0.481567, 0.537476, -0.710571, -0.488281, -0.244141, 0.183106
1117111, 0.475830, 0.533569, -0.711426, 0.854492, -0.488281, -0.183106
1117131, 0.482300, 0.520752, -0.717407, -0.061035, -0.061035, 0.244141
1117151, 0.479126, 0.536987, -0.714600, -0.061035, -0.183106, -0.427246
1117171, 0.479126, 0.536011, -0.716919, 0.305176, -0.427246, -0.183106
1117191, 0.476074, 0.531006, -0.713867, 0.427246, -0.671387, -0.488281
1117211, 0.475464, 0.526611, -0.714111, 0.122070, -0.366211, -0.671387
1117231, 0.481934, 0.531006, -0.711304, 0.000000, -0.061035, -0.427246
1117251, 0.485840, 0.532715, -0.712280, 0.549316, -0.793457, -1.098633
1117311, 0.484375, 0.520264, -0.722412, -0.549316, 0.000000, -0.305176
1117331, 0.483276, 0.535767, -0.699707, -0.488281, -0.488281, -0.671387
1117351, 0.478271, 0.527710, -0.713989, -0.122070, 0.000000, -0.610352
1117371, 0.478394, 0.539551, -0.709839, -0.244141, -0.061035, -0.610352
1117391, 0.477539, 0.535278, -0.716431, 0.732422, -0.244141, -0.915528
1117431, 0.485352, 0.525757, -0.704224, 0.122070, -0.305176, 0.305176
1117451, 0.488525, 0.522583, -0.708862, -0.488281, -0.549316, -0.732422
1117551, 0.476929, 0.520264, -0.705200, -1.586915, -0.183106, -1.892090
1117571, 0.477051, 0.518433, -0.709473, -2.624512, 0.671387, -2.868653
1117591, 0.469849, 0.529175, -0.718018, -4.272461, 0.000000, -3.601075
1117611, 0.467041, 0.528198, -0.721436, -4.882813, -0.610352, -2.868653
1117631, 0.474854, 0.540527, -0.711182, -4.089355, -1.708985, -1.892090
1117651, 0.452637, 0.541138, -0.718872, -1.708985, -0.976563, -1.159668
1117671, 0.441772, 0.512207, -0.703857, -2.868653, 3.234864, -2.258301
1117691, 0.461792, 0.468994, -0.687256, -5.432129, 11.108402, -2.929688
1117711, 0.462891, 0.441895, -0.677002, -16.723633, 18.676758, -5.554201
1117731, 0.453125, 0.462158, -0.686646, -20.324707, 20.507813, -11.291508
1117751, 0.408325, 0.826904, -0.657471, -16.113281, 4.638672, 1.342773
1117771, 0.678589, 0.672852, -0.760132, 1.586915, 30.578621, 4.150391
1117791, 0.467773, 0.585938, -0.613281, -10.009766, -7.080080, 1.342773
1117811, 0.456177, 0.587524, -0.607056, -0.488281, 7.263186, 4.150391
1117831, 0.463257, 0.640381, -0.671875, -1.159668, 19.897461, 1.586915
1117851, 0.532715, 0.707642, -0.725220, -13.732914, 33.630371, -5.187988
1117871, 0.584473, 0.726074, -0.683960, -21.545410, 15.441898, -14.099125
1117891, 0.585693, 0.683594, -0.717896, -27.709969, -20.141602, -22.155769
1117911, 0.594849, 0.588501, -0.711548, -41.564941, -57.250992, -26.550301
1117931, 0.624390, 0.642578, -0.516724, -36.987305, -43.640137, -43.884277
1117951, 0.441895, 0.566895, -0.698364, -33.203125, -65.246582, -39.489746
1117971, 0.372314, 0.562256, -0.624512, -34.912109, -56.701675, -30.090340
1117991, 0.359253, 0.605225, -0.646973, -28.991707, -44.128418, -21.728516
1118011, 0.377319, 0.584839, -0.630249, -22.033691, -32.409668, -16.906738
1118031, 0.384888, 0.556763, -0.589966, -10.375977, -28.503426, -8.972168
1118051, 0.448486, 0.647705, -0.602905, 5.981447, -25.939949, -6.774904
1118071, 0.462646, 0.572266, -0.570679, 13.000492, -27.343758, -11.474613
1118091, 0.272339, 0.549072, -0.588989, 100.341827, -0.488281, 0.305176
1118111, 0.133545, 0.524902, -1.131836, 84.533691, 37.048340, 22.705086
1118131, 0.269287, 0.458740, -0.834961, 38.696289, 36.682129, 47.485367
1118151, 0.151978, 0.630493, -0.437134, 49.072281, 6.408693, 67.932129
1118171, 0.518311, 0.449097, -0.847290, 26.062019, 78.613281, 34.973145
1118191, 0.432129, 0.476318, -0.734009, -16.235352, 61.035172, 13.427738
1118211, 0.567139, 0.982056, -0.643799, 9.948730, 48.522964, 21.850586
1118231, 0.619995, 0.584106, -0.822266, 5.310059, 39.001465, 11.352543
1118251, 0.456299, 0.620117, -0.599243, -1.953125, 18.493652, 8.972168
1118271, 0.511230, 0.662842, -0.691528, -2.868653, 22.155769, 0.183106
1118291, 0.373047, 0.614624, -0.618286, 1.831055, 37.597656, 2.075195
1118311, 0.688477, 0.801758, -0.768799, -3.417970, 29.296883, -16.784668
1118331, 0.665283, 0.657471, -0.690186, -3.234864, -28.686531, -37.841797
1118351, 0.541016, 0.492798, -0.666992, -5.615236, -43.579102, -33.569336
1118371, 0.469849, 0.461304, -0.660034, -6.042482, -47.851578, -24.292000
1118391, 0.455322, 0.481689, -0.630981, -2.258301, -30.273445, -9.704590
1118411, 0.528809, 0.586792, -0.661011, 4.699707, -34.362793, -0.915528
1118431, 0.450317, 0.658936, -0.710327, 3.417970, -38.146973, -3.112794
1118451, 0.356201, 0.664551, -0.681641, -9.216309, -16.662598, 8.483887
1118471, 0.510010, 0.833008, -0.576904, 5.432129, 8.605957, 8.850098
1118491, 0.568604, 0.703369, -0.766479, 17.272949, -14.099125, -16.479492
1118511, 0.419678, 0.513794, -0.880859, -1.892090, -56.030289, -34.301758
1118531, 0.257935, 0.477295, -0.815308, -24.475105, -58.532730, -34.545898
1118551, 0.432007, 0.461792, -0.662720, -27.038582, -19.714355, -52.978531
1118571, 0.183228, 0.410156, -0.757080, -23.254402, -29.663094, -44.433609
1118591, 0.206665, 0.433716, -0.764038, -38.513184, -5.737307, -26.916512
1118611, 0.341675, 0.507568, -0.660400, -40.832520, 1.525879, -18.432617
1118631, 0.252563, 0.833374, -0.565674, -16.235352, 25.085457, 7.202150
1118651, 0.621460, 0.641357, -0.717407, -6.958010, 10.681152, 6.896975
1118671, 0.382690, 0.678711, -0.589722, -2.197266, -20.507813, 1.281738
1118691, 0.383545, 0.669556, -0.715942, -2.136230, -33.630371, 0.183106
1118711, 0.363281, 0.677368, -0.699097, -3.051759, -35.644531, 0.366211
1118731, 0.418823, 0.686523, -0.660400, -1.220703, -48.034683, -1.403809
1118751, 0.319092, 0.610229, -0.627197, 1.831055, -54.260269, 3.662110
1118771, 0.252808, 0.646118, -0.680420, -6.958010, -18.371582, 43.884277
1118791, 0.525391, 0.704224, -0.631958, -18.432617, -0.671387, 53.649918
1118811, 0.468140, 0.681274, -0.628052, -13.549809, -14.770512, 36.499023
1118831, 0.350464, 0.684204, -0.715576, -9.277344, -18.066406, 25.756844
1118851, 0.200806, 0.662109, -0.771118, -4.760742, -32.592773, 8.422852
1118871, 0.092773, 0.654663, -0.792236, -4.211426, -30.334480, 1.831055
1118891, 0.060181, 0.650757, -0.785645, -4.760742, -6.896975, 3.906251
1118911, 0.234009, 0.665527, -0.709717, -7.446291, 18.005371, 11.657719
1118931, 0.367676, 0.671631, -0.656616, -5.737307, 22.521980, 10.192871
1118951, 0.399292, 0.672363, -0.650513, -2.075195, 19.409180, 6.164553
1118971, 0.393921, 0.668823, -0.662720, 0.305176, 20.446777, 2.258301
1118991, 0.435059, 0.672119, -0.656616, 2.441406, 11.901859, -1.647950
1119011, 0.391968, 0.690674, -0.651733, 5.432129, -1.953125, -4.089355
1119031, 0.384766, 0.761475, -0.648438, 12.695316, 0.976563, -4.516602
1119051, 0.467773, 1.440796, -0.503418, 69.702148, 21.057129, 31.799324
1119071, 0.699585, 0.932983, -0.463257, 149.353027, 6.530764, 48.950211
1119111, 0.265869, 0.030029, -0.808838, 58.166519, -30.822762, 23.254402
1119131, 0.293579, 0.309692, -0.827881, 28.869637, -38.513184, -1.892090
1119151, 0.202637, 0.537231, -0.949097, 31.311043, -39.001465, -20.446777
1119171, 0.041626, 0.654175, -1.006348, 38.757324, -29.724129, -13.977055
1119191, 0.005249, 0.581543, -0.959961, 40.466309, -3.173829, 13.305668
1119211, 0.208496, 0.456299, -0.868164, 36.193848, 11.413578, 30.944832
1119231, 0.288818, 0.427612, -0.790649, 42.297363, 14.343266, 30.578621
1119251, 0.321045, 0.344482, -0.821655, 41.320801, 38.024902, 34.667969
1119271, 0.411987, 0.288086, -0.755859, 34.484863, 47.729507, 27.160652
1119291, 0.481445, 0.244873, -0.747437, 24.475105, 51.391617, 13.671879
