timestamp,ax,ay,az,gx,gy,gz
739857, 0.235962, 0.938721, -0.290283, 9.521484, 2.685547, 5.737307
739877, 0.250732, 0.930054, -0.304321, 8.178711, 3.540040, 4.089355
739897, 0.258301, 0.924927, -0.327515, 5.371094, 2.258301, 2.075195
739917, 0.255127, 0.925171, -0.329834, 1.342773, -0.549316, 0.549316
739937, 0.239136, 0.932617, -0.303101, -1.037598, -2.319336, -0.366211
739957, 0.242310, 0.936157, -0.288696, -1.708985, -2.746582, -0.976563
739977, 0.239136, 0.936279, -0.291382, -1.953125, -2.197266, -2.197266
739997, 0.233398, 0.937622, -0.283691, -2.380371, -3.234864, -2.502441
740017, 0.228882, 0.936035, -0.288818, -2.441406, -2.807618, -2.807618
740037, 0.222412, 0.936890, -0.287720, -3.112794, -1.953125, -2.868653
740057, 0.225952, 0.937866, -0.284058, -2.624512, -1.525879, -2.746582
740077, 0.234863, 0.936523, -0.293335, -3.723145, -1.831055, -3.234864
740097, 0.236572, 0.938477, -0.286133, -4.638672, -3.112794, -4.150391
740117, 0.208496, 0.944336, -0.269897, -4.638672, -3.173829, -4.150391
740137, 0.190674, 0.944946, -0.264526, -3.540040, -2.380371, -2.258301
740157, 0.200684, 0.946411, -0.262085, -2.929688, -1.342773, -0.549316
740177, 0.199585, 0.949219, -0.252808, -1.403809, -0.305176, 0.915528
740197, 0.210815, 0.949951, -0.248047, 0.671387, 0.427246, 1.892090
740217, 0.214355, 0.945557, -0.262207, 2.258301, 0.915528, 2.258301
740237, 0.216797, 0.945313, -0.261597, 3.295899, 1.403809, 2.807618
740257, 0.220581, 0.944092, -0.265381, 4.333496, 0.915528, 3.234864
740277, 0.224121, 0.940186, -0.278809, 4.516602, 1.159668, 3.417970
740297, 0.234009, 0.940430, -0.279907, 4.211426, 1.342773, 3.234864
740317, 0.239014, 0.940063, -0.278320, 4.211426, 0.000000, 2.807618
740337, 0.240356, 0.940918, -0.276245, 4.455566, -2.136230, 2.197266
740357, 0.237793, 0.939941, -0.283813, 4.577637, -1.403809, 1.281738
740377, 0.196899, 0.940796, -0.279663, 4.821777, -0.183106, 1.831055
740397, 0.174316, 0.944702, -0.269531, 5.493164, 4.028320, 5.432129
740417, 0.201660, 0.950562, -0.246216, 8.361816, 8.605957, 8.422852
740437, 0.263550, 0.959106, -0.249512, 14.038090, 5.126953, 10.070801
740457, 0.291992, 0.949463, -0.264404, 17.517090, -3.295899, 9.338379
740477, 0.330566, 0.926514, -0.272095, 20.202637, -11.474613, 6.042482
740497, 0.301270, 0.897705, -0.328857, 23.803719, -19.409180, 1.831055
740517, 0.220703, 0.881104, -0.489258, 13.122562, -15.563969, -2.319336
740537, 0.189087, 0.894775, -0.462158, -4.211426, -4.150391, -1.037598
740557, 0.193970, 0.937378, -0.314575, -8.972168, 0.366211, 2.868653
740577, 0.218750, 0.966064, -0.253296, -2.258301, 2.563477, 6.652834
740597, 0.292480, 0.961792, -0.266602, 5.798342, -1.220703, 8.178711
740617, 0.333130, 0.890137, -0.341919, 7.873537, -12.207035, -1.525879
740637, 0.294678, 0.863403, -0.358521, 2.807618, -12.878422, -7.995607
740657, 0.234009, 0.918701, -0.339844, -0.732422, -8.728027, -9.826660
740677, 0.171875, 1.000244, -0.309082, 2.258301, -4.394531, -5.310059
740697, 0.179932, 1.023438, -0.277954, 12.451176, -0.732422, 2.685547
740717, 0.226563, 0.979614, -0.311768, 23.864754, 0.000000, 6.469728
740737, 0.248901, 0.937866, -0.389648, 31.616219, 5.432129, 1.037598
740757, 0.250854, 0.869385, -0.472168, 32.043457, 2.502441, -9.155273
740777, 0.203857, 0.833618, -0.531372, 27.343758, -5.493164, -17.517090
740797, 0.120117, 0.807129, -0.544434, 21.057129, -11.596684, -23.864754
740817, 0.007690, 0.791016, -0.517456, 13.366703, -0.671387, -22.827156
740837, -0.005981, 0.815308, -0.474976, 15.319828, 11.230473, -11.291508
740857, 0.031128, 0.830444, -0.455933, 18.066406, 20.507813, -2.502441
740877, 0.092651, 0.825439, -0.481445, 12.084965, 40.649414, -8.178711
740897, 0.173828, 0.848999, -0.471802, 4.455566, 51.330582, -16.540527
740917, 0.197388, 0.876587, -0.449097, -4.638672, 48.278824, -14.831547
740937, 0.245972, 0.903687, -0.370239, -11.291508, 43.090820, -8.605957
740957, 0.291748, 0.897217, -0.311523, -18.554688, 43.212891, -5.432129
740977, 0.324829, 0.849731, -0.282715, -27.709969, 47.790543, -3.601075
740997, 0.370483, 1.016846, -0.345093, -53.771988, 54.321304, 16.784668
741017, 0.578857, 0.996826, -0.258911, -66.772461, 38.146973, 20.629883
741037, 0.669922, 0.953735, -0.109741, -63.049332, 15.197758, -5.310059
741077, 0.609619, 0.975586, -0.033081, -37.902832, -29.602058, -65.307617
741097, 0.464600, 0.958496, -0.047241, -20.202637, -47.607437, -86.669922
741117, 0.008057, 0.947388, -0.116455, -2.319336, -66.833496, -75.744629
741137, -0.300049, 0.924561, -0.198242, 2.258301, -55.542007, -26.123055
741157, -0.056885, 0.951904, -0.223145, 3.417970, -13.610844, 7.568361
741177, 0.067993, 0.918823, -0.276123, -0.061035, 15.136723, 28.991707
741197, 0.318726, 0.926147, -0.257324, -2.502441, 18.676758, 47.912613
741217, 0.418945, 0.930786, -0.278198, -4.333496, 8.972168, 40.710449
741237, 0.398315, 0.945679, -0.284546, -7.751467, -2.807618, 24.658211
741257, 0.258911, 0.954834, -0.243896, -7.568361, -9.643555, 14.160160
741277, 0.178467, 0.973999, -0.260132, -10.253906, -5.615236, 9.033203
741297, 0.147705, 0.973511, -0.236328, -11.413578, -7.751467, 3.295899
741317, 0.109863, 0.989624, -0.219360, -10.742188, -4.882813, 1.892090
741337, 0.128540, 0.980957, -0.211548, -10.253906, -5.249023, -2.136230
741357, 0.135864, 0.996582, -0.224365, -10.009766, -10.314941, -6.408693
741377, 0.100708, 0.998901, -0.213623, -10.131836, -10.925293, -14.526371
741397, 0.056274, 0.991089, -0.192383, -10.742188, -9.948730, -14.709476
741417, 0.033936, 0.995117, -0.149536, -8.483887, -7.202150, -10.498047
741437, 0.048584, 0.985840, -0.165649, -6.164553, -5.126953, -8.422852
741457, 0.025635, 1.004639, -0.084961, -0.915528, 1.098633, 1.770020
741477, 0.053345, 1.001099, -0.075195, 11.535648, 6.530764, 13.793949
741497, 0.115356, 0.983276, -0.120239, 19.958496, 10.559082, 21.545410
741517, 0.108521, 0.974976, -0.127319, 27.404793, 14.892582, 27.526863
741537, 0.107666, 0.959595, -0.166748, 33.508301, 22.338875, 35.461426
741557, 0.147339, 0.943237, -0.213257, 35.827637, 27.709969, 42.419434
741577, 0.407471, 0.920044, -0.445435, 3.601075, 23.071297, 22.827156
741597, 0.399414, 0.977295, -0.243774, -10.192871, 2.929688, 1.281738
741617, 0.283325, 0.988281, -0.163208, -10.803223, -11.352543, -12.573246
741637, 0.138184, 0.990723, -0.092041, -5.615236, -14.526371, -12.390141
741657, 0.102417, 0.997070, -0.085571, 1.220703, -9.399414, -6.530764
741677, 0.167358, 0.991577, -0.123901, 5.859377, -8.300781, -2.197266
741697, 0.216431, 0.993286, -0.196411, 1.892090, -8.239746, -6.713869
741717, 0.206421, 0.957397, -0.201294, -3.479005, -13.549809, -12.084965
741737, 0.187622, 0.977173, -0.196411, -7.446291, -20.629883, -11.596684
741757, 0.138550, 0.969238, -0.174194, -4.943848, -14.099125, -6.408693
741777, 0.176270, 0.958496, -0.175293, 0.305176, -8.422852, -0.488281
741797, 0.205811, 0.945801, -0.192627, 9.704590, -5.126953, 5.798342
741817, 0.265381, 0.909546, -0.268555, 16.662598, -6.958010, 13.305668
741837, 0.342285, 0.887207, -0.339722, 20.690918, -8.789063, 18.615723
741857, 0.424072, 0.863403, -0.425293, 19.592285, -7.873537, 16.174316
741877, 0.456543, 0.842651, -0.494629, 14.465336, -4.150391, 10.253906
741897, 0.484741, 0.835327, -0.531860, 4.638672, -8.972168, 3.906251
741917, 0.424683, 0.839600, -0.530762, -7.385256, -7.873537, -4.943848
741937, 0.286133, 0.883423, -0.405518, -10.009766, -5.371094, -3.173829
741957, 0.219238, 0.922119, -0.387451, -20.263672, 14.526371, -0.244141
741977, 0.261108, 1.013184, -0.153198, -13.793949, 3.417970, 0.854492
741997, 0.246948, 1.069336, 0.008789, 25.695808, -14.648441, -6.530764
742017, 0.246948, 0.984619, -0.255981, 53.283707, -13.244633, -22.460945
742037, 0.172729, 0.893066, -0.554077, 45.471207, 0.122070, -37.841797
742057, 0.071899, 0.852905, -0.561523, 21.972656, -2.014160, -38.513184
742077, -0.013916, 0.880615, -0.442383, 9.033203, -2.563477, -28.320320
742097, -0.014038, 0.889893, -0.363647, 3.479005, 14.953617, -18.615723
742117, 0.059570, 0.897095, -0.328247, 0.427246, 36.682129, -11.596684
742137, 0.211670, 0.908936, -0.281372, -4.455566, 41.809082, -0.549316
742157, 0.289307, 0.919312, -0.254883, -9.948730, 33.691406, 5.187988
742177, 0.345947, 0.921509, -0.189575, -16.296387, 26.733406, 9.338379
742197, 0.375854, 0.895264, -0.125732, -21.301270, 22.949226, 11.474613
742217, 0.434937, 0.969116, -0.096191, -25.756844, 16.723633, 16.174316
742237, 0.600952, 1.077759, 0.032349, -10.070801, -13.977055, 1.159668
742257, 0.561890, 1.021851, 0.058105, 18.676758, -34.790039, -25.085457
742277, 0.407837, 0.944824, -0.145020, 36.071777, -58.654800, -43.945313
742297, 0.038696, 0.840210, -0.500366, 9.704590, -31.982430, -37.109375
742317, 0.052734, 0.890015, -0.317871, -25.329597, -14.099125, -9.277344
742337, 0.108032, 0.978882, -0.112061, -28.503426, -7.263186, 26.428230
742357, 0.310791, 0.988647, -0.098877, -22.766121, -6.591799, 34.790039
742377, 0.416016, 0.975586, -0.129517, -17.517090, -21.545410, 27.954109
742397, 0.427734, 0.972900, -0.153442, -14.282230, -37.353516, 17.700195
742417, 0.375244, 0.984619, -0.138184, -4.821777, -52.612320, 5.004883
742437, 0.255859, 0.973755, -0.196289, 7.019045, -63.842789, -4.577637
742457, 0.097168, 0.952148, -0.326904, 10.986328, -61.767593, -9.765625
742477, -0.044312, 0.928955, -0.429932, 9.033203, -47.912613, -8.483887
742497, -0.122070, 0.906128, -0.500488, -0.366211, -26.733406, 3.906251
742517, -0.063721, 0.916870, -0.451050, -13.305668, -2.380371, 23.742683
742537, 0.081177, 0.940430, -0.374268, -16.601563, 4.516602, 27.221687
742557, 0.211792, 0.966675, -0.297485, -13.366703, 0.671387, 22.033691
742577, 0.255493, 0.968994, -0.297119, -5.249023, -4.577637, 6.225588
742597, 0.228760, 0.959351, -0.306763, 0.732422, -9.948730, -10.375977
742617, 0.134033, 0.928467, -0.345947, -4.211426, -7.507326, -9.338379
742637, 0.129028, 0.946167, -0.285522, -8.605957, -4.211426, -4.150391
742657, 0.137207, 0.956299, -0.235840, -8.544922, 0.305176, 0.976563
742677, 0.172729, 0.961304, -0.218628, -5.920412, 3.234864, 4.028320
742697, 0.216675, 0.963623, -0.207397, -2.807618, 2.563477, 3.662110
742717, 0.248413, 0.963257, -0.207153, 2.502441, -0.854492, 0.915528
742737, 0.225464, 0.959961, -0.211670, 6.042482, -3.723145, -1.342773
