timestamp,ax,ay,az,gx,gy,gz
657052, 0.368530, 0.893433, -0.180420, 12.084965, -0.061035, 29.052742
657072, 0.501221, 0.909912, -0.206665, 18.188477, -10.864258, 31.860359
657092, 0.595947, 0.896729, -0.311523, 19.775391, -21.484375, 13.854984
657112, 0.506226, 0.885864, -0.363159, 14.160160, -31.738289, -15.258793
657132, 0.401367, 0.880981, -0.391235, 8.789063, -37.780762, -25.451668
657152, 0.283691, 0.883179, -0.406860, 0.366211, -39.428711, -28.503426
657172, 0.176514, 0.899780, -0.364868, -5.554201, -34.423828, -24.841316
657192, 0.180542, 0.919312, -0.316284, -7.385256, -21.545410, -19.104004
657212, 0.157104, 0.921509, -0.315430, -6.774904, -14.099125, -13.549809
657232, 0.188843, 0.926025, -0.310303, -6.713869, -9.216309, -7.629396
657252, 0.199097, 0.925293, -0.311279, -6.530764, -6.103518, -4.638672
657272, 0.194824, 0.939209, -0.262573, -4.150391, -3.234864, -0.793457
657292, 0.224609, 0.931274, -0.286011, 0.854492, -0.976563, 3.173829
657312, 0.243530, 0.930420, -0.286743, 3.295899, -0.732422, 3.784181
657332, 0.252686, 0.928223, -0.289917, 5.249023, -0.183106, 3.723145
657352, 0.269653, 0.925293, -0.304199, 6.591799, 0.244141, 2.441406
657372, 0.252197, 0.924194, -0.307861, 7.324221, -0.915528, 1.647950
657392, 0.237427, 0.920410, -0.317383, 7.934572, 0.244141, 2.197266
657412, 0.245483, 0.918701, -0.325684, 7.873537, 1.403809, 3.112794
657432, 0.254028, 0.914429, -0.339355, 6.958010, 1.953125, 3.234864
657452, 0.276489, 0.914185, -0.337280, 6.042482, 0.610352, 2.685547
657472, 0.266602, 0.915283, -0.330200, 5.187988, -0.183106, 1.220703
657492, 0.240356, 0.916626, -0.324585, 6.530764, 1.159668, 1.953125
657512, 0.231567, 0.910889, -0.341309, 6.164553, 2.990724, 3.479005
657532, 0.243164, 0.909424, -0.345459, 5.493164, 5.065918, 5.126953
657552, 0.265381, 0.905396, -0.356201, 3.967286, 5.126953, 5.676271
657572, 0.276733, 0.905762, -0.355103, 2.197266, 4.882813, 5.187988
657592, 0.271851, 0.909180, -0.337036, 1.098633, 4.211426, 4.699707
657612, 0.270630, 0.910889, -0.327148, 1.953125, 4.943848, 4.821777
657632, 0.299194, 0.906616, -0.343872, 1.708985, 3.479005, 3.967286
657652, 0.304688, 0.908325, -0.335449, 1.403809, 1.342773, 1.953125
657672, 0.294434, 0.908447, -0.336548, 1.159668, -0.732422, -0.915528
657692, 0.269043, 0.908325, -0.333984, 1.708985, -1.037598, -0.976563
657712, 0.266235, 0.905029, -0.346802, 1.098633, -0.549316, -0.305176
657732, 0.275879, 0.906616, -0.338501, 0.671387, -1.342773, 0.488281
657752, 0.275146, 0.907837, -0.335571, 0.610352, -1.098633, 0.061035
657772, 0.266479, 0.907471, -0.338989, 0.732422, -0.427246, 0.488281
657792, 0.266724, 0.907104, -0.343384, 0.305176, 0.610352, 1.159668
657812, 0.285400, 0.904907, -0.346680, -0.305176, 0.671387, 1.098633
657832, 0.294434, 0.902832, -0.347900, -1.281738, -0.244141, 0.061035
657852, 0.281616, 0.906250, -0.338989, -1.770020, -0.915528, -0.854492
657872, 0.281982, 0.905029, -0.348755, -3.601075, 0.366211, -0.793457
657892, 0.284302, 0.911011, -0.323120, -3.417970, 0.061035, -1.464844
657912, 0.286255, 0.911377, -0.325806, -2.807618, -0.793457, -1.525879
657932, 0.295288, 0.912354, -0.322754, -2.075195, -2.197266, -2.807618
657952, 0.281616, 0.909180, -0.329956, -2.075195, -3.051759, -3.540040
657972, 0.280640, 0.911377, -0.328369, -1.708985, -3.356935, -3.967286
657992, 0.278076, 0.912964, -0.324951, -1.953125, -3.417970, -4.577637
658012, 0.260986, 0.916138, -0.311768, -0.610352, -2.502441, -4.821777
658032, 0.238403, 0.914307, -0.325928, 0.488281, -1.281738, -3.601075
658052, 0.211304, 0.910522, -0.337769, -0.732422, 2.624512, 2.624512
658072, 0.243896, 0.912964, -0.322388, -0.732422, 2.929688, 5.554201
658092, 0.269653, 0.919067, -0.303223, 0.488281, 2.197266, 7.324221
658112, 0.300293, 0.914673, -0.306885, 2.563477, 1.220703, 6.103518
658132, 0.302612, 0.910034, -0.326538, 3.662110, 0.427246, 4.211426
658152, 0.306274, 0.901367, -0.355225, 2.380371, 0.000000, 1.831055
658172, 0.284302, 0.900513, -0.364746, -0.732422, 0.061035, 0.427246
658192, 0.257080, 0.907837, -0.334961, -2.380371, 1.403809, 1.342773
658212, 0.273926, 0.912476, -0.318115, -1.892090, 3.479005, 2.685547
658232, 0.318970, 0.912964, -0.317627, -1.159668, 3.234864, 1.098633
658252, 0.302612, 0.915161, -0.313110, 0.793457, 1.403809, -2.990724
658272, 0.287598, 0.916382, -0.328125, 1.342773, 5.493164, -4.638672
658292, 0.260254, 0.932251, -0.327637, 1.159668, 12.817387, -5.432129
658312, 0.207031, 0.960815, -0.312866, 2.807618, 15.319828, -0.610352
658332, 0.221191, 1.000610, -0.274780, 6.896975, 6.530764, 10.498047
658352, 0.202148, 1.074829, -0.189453, 24.353035, -0.244141, 34.118652
658372, 0.244873, 1.213501, -0.230591, 39.489746, -9.948730, 62.744156
658392, 0.331909, 1.127319, -0.302612, 47.363297, -8.422852, 69.091797
658412, 0.412476, 1.045776, -0.377930, 43.945313, 4.516602, 52.185074
658432, 0.659668, 1.066406, -0.322021, 45.776382, 4.272461, 10.864258
658452, 0.648804, 1.032227, -0.263550, 60.180679, -38.330078, -0.305176
658472, 0.582886, 0.937988, -0.273560, 75.073242, -93.261749, -6.774904
658492, 0.411743, 0.785645, -0.326416, 84.350586, -97.595245, -17.639160
658512, 0.160889, 0.702881, -0.480713, 84.960938, -92.102081, -15.869144
658532, 0.080933, 0.669434, -0.631714, 68.969727, -67.626953, -7.751467
658552, 0.016724, 0.631836, -0.662476, 47.790543, -50.964371, 7.629396
658572, 0.030151, 0.632324, -0.613159, 31.860359, -37.292480, 25.817879
658592, 0.055054, 0.662964, -0.590820, 22.583015, -19.897461, 38.635254
658612, 0.100342, 0.689575, -0.566772, 18.554688, 0.610352, 49.194351
658632, 0.256836, 0.661499, -0.583130, 15.869144, 19.287109, 46.569839
658652, 0.317627, 0.636597, -0.599976, 12.512211, 21.606445, 37.780762
658672, 0.332886, 0.649292, -0.616333, 7.568361, 14.587406, 30.395515
658692, 0.335327, 0.652832, -0.612061, 4.638672, 5.554201, 26.672371
658712, 0.364502, 0.616333, -0.606201, 3.784181, -0.183106, 22.094727
658732, 0.415527, 0.596558, -0.625488, 2.441406, -0.061035, 11.413578
658752, 0.400757, 0.602539, -0.628540, 1.647950, -1.098633, 2.075195
658772, 0.347778, 0.616699, -0.620850, 0.671387, -2.319336, 1.708985
658792, 0.318115, 0.659546, -0.618042, 0.915528, -1.098633, 8.422852
658812, 0.328369, 0.616821, -0.624756, 0.061035, 6.530764, 21.667480
658832, 0.403198, 0.601685, -0.645752, -4.638672, 15.136723, 21.972656
658852, 0.468262, 0.630005, -0.632568, -8.728027, 20.202637, 15.625004
658872, 0.496948, 0.649536, -0.598633, -9.643555, 19.042969, 7.141115
658892, 0.504028, 0.687866, -0.576904, -6.164553, 9.155273, 2.319336
658912, 0.477539, 0.676392, -0.563965, -0.061035, -1.159668, -0.305176
658952, 0.500854, 0.610596, -0.614624, 1.220703, -5.676271, -9.155273
658972, 0.464600, 0.617065, -0.629761, -2.929688, -10.131836, -12.512211
658992, 0.432007, 0.654297, -0.622437, -7.629396, -13.366703, -13.977055
659012, 0.385742, 0.724609, -0.584717, -6.042482, -11.230473, -11.291508
659032, 0.385376, 0.741699, -0.599121, -1.953125, -8.239746, -8.850098
659052, 0.374878, 0.733032, -0.657471, -2.441406, -4.516602, -7.446291
659072, 0.372192, 0.746826, -0.679199, -7.690432, 0.427246, -6.835939
659092, 0.384521, 0.790894, -0.641113, -10.131836, 3.540040, -6.042482
659112, 0.390381, 0.811401, -0.609497, -7.751467, 2.929688, -3.845216
659132, 0.393311, 0.801880, -0.616455, -6.042482, 1.037598, -0.854492
659152, 0.395874, 0.780396, -0.615723, -6.652834, 0.976563, -0.366211
659172, 0.376831, 0.763916, -0.593018, -7.141115, 1.525879, -0.366211
659192, 0.373901, 0.747314, -0.554077, -5.126953, 4.028320, 1.220703
659212, 0.384033, 0.725708, -0.547852, -2.563477, 3.601075, 3.417970
659232, 0.387695, 0.716797, -0.567749, -2.380371, 1.342773, 3.417970
659252, 0.388306, 0.711670, -0.566284, -2.929688, -1.037598, 2.502441
659272, 0.384155, 0.720215, -0.553345, -1.953125, -3.051759, 2.136230
659292, 0.384644, 0.719360, -0.542236, 1.342773, -3.723145, 1.831055
659312, 0.382690, 0.699219, -0.556274, 3.601075, -4.760742, 1.647950
659332, 0.390381, 0.683472, -0.576660, 2.258301, -4.577637, 0.061035
659352, 0.396606, 0.695068, -0.568115, 0.732422, -6.103518, -1.831055
659372, 0.392456, 0.703247, -0.589600, 2.075195, -9.338379, -4.333496
659392, 0.372681, 0.707764, -0.581543, 2.685547, -10.192871, -4.455566
659412, 0.356079, 0.708984, -0.595581, 2.746582, -9.826660, -4.028320
659432, 0.345703, 0.714844, -0.615234, 1.098633, -6.469728, -5.310059
659452, 0.341064, 0.730225, -0.616333, -0.610352, -3.417970, -4.760742
659472, 0.346069, 0.753296, -0.606812, 0.061035, -4.089355, -3.540040
659492, 0.343628, 0.752197, -0.618774, -0.183106, -2.685547, -2.868653
659512, 0.338379, 0.744995, -0.626099, -2.685547, 0.854492, -1.831055
659532, 0.332764, 0.748047, -0.610107, -5.493164, 4.882813, 1.464844
659552, 0.359131, 0.760986, -0.581665, -5.615236, 9.582520, 4.089355
659572, 0.420898, 0.768066, -0.562378, -2.685547, 12.756351, 3.967286
659592, 0.447510, 0.781860, -0.557861, 0.732422, 7.080080, 2.929688
659612, 0.453369, 0.782593, -0.564941, 3.234864, -0.366211, 0.061035
659632, 0.403809, 0.768555, -0.575195, 3.967286, -5.554201, -0.976563
659652, 0.357544, 0.752930, -0.579224, 3.112794, -3.112794, 0.915528
659672, 0.356201, 0.744263, -0.568604, 2.990724, 2.197266, 4.333496
659692, 0.392090, 0.739624, -0.568115, 3.601075, 3.967286, 5.798342
659712, 0.406616, 0.730957, -0.576416, 3.601075, 0.976563, 4.821777
659732, 0.392944, 0.723755, -0.579590, 2.685547, -0.854492, 3.845216
659752, 0.343872, 0.719360, -0.555786, 2.685547, 0.488281, 4.516602
659772, 0.399658, 0.707886, -0.553711, 3.662110, 0.061035, 3.601075
659792, 0.417114, 0.704224, -0.563232, 4.089355, -5.432129, -1.220703
659812, 0.372437, 0.700684, -0.573730, 3.784181, -12.023930, -5.065918
659832, 0.340210, 0.703735, -0.575928, 2.441406, -12.451176, -5.676271
659852, 0.325562, 0.701782, -0.562256, 1.647950, -6.042482, -5.615236
659872, 0.347412, 0.714722, -0.578491, 1.708985, -3.723145, -5.432129
659892, 0.374023, 0.708862, -0.578491, 1.220703, -0.915528, -9.277344
659912, 0.400146, 0.705688, -0.592773, 1.892090, -3.601075, -11.230473
659932, 0.406250, 0.724121, -0.632202, 2.319336, -2.990724, -12.695316
659952, 0.396484, 0.747925, -0.692261, 1.281738, 0.061035, -13.061527
659972, 0.372681, 0.770264, -0.701538, -0.488281, 4.455566, -11.596684
659992, 0.369629, 0.794678, -0.656128, 1.708985, 7.873537, -7.934572
660012, 0.376221, 0.794434, -0.616577, 7.019045, 7.751467, -5.310059
660032, 0.375488, 0.777100, -0.606201, 11.962894, 5.493164, -6.286623
660052, 0.355713, 0.740112, -0.603271, 13.977055, 1.708985, -9.948730
660072, 0.337158, 0.706543, -0.594482, 13.305668, 0.610352, -13.305668
660112, 0.296997, 0.687744, -0.581909, 8.483887, -0.183106, -9.277344
660132, 0.305176, 0.711548, -0.549927, 7.995607, 5.615236, -5.493164
660152, 0.330200, 0.708374, -0.572632, 8.789063, 6.835939, -4.943848
660172, 0.341919, 0.721558, -0.606323, 6.774904, 4.699707, -5.126953
660192, 0.349487, 0.728516, -0.612549, 4.577637, 0.305176, -7.019045
660212, 0.338135, 0.734741, -0.614502, 2.929688, -2.075195, -9.460449
660232, 0.321289, 0.749390, -0.601563, 3.173829, -2.319336, -10.192871
660252, 0.303101, 0.748535, -0.614258, 3.845216, -0.488281, -9.826660
660312, 0.350220, 0.785645, -0.592285, 3.845216, 4.577637, 1.831055
660372, 0.391724, 0.686646, -0.615967, 7.019045, -0.305176, 4.272461
660392, 0.372192, 0.666382, -0.630371, 5.126953, -3.845216, 2.502441
660412, 0.356689, 0.660278, -0.632446, 4.028320, -5.432129, 1.098633
660432, 0.347290, 0.672974, -0.651611, 3.784181, -4.760742, -2.380371
660452, 0.331421, 0.685303, -0.666382, 3.967286, -4.028320, -3.784181
660472, 0.333252, 0.688721, -0.672852, 4.821777, -4.699707, -4.455566
660532, 0.360718, 0.677612, -0.680786, 5.371094, -2.136230, -13.427738
660552, 0.326782, 0.696655, -0.684082, 5.798342, -2.868653, -18.615723
660572, 0.292114, 0.702026, -0.688110, 6.591799, -1.403809, -20.568848
660592, 0.271729, 0.717041, -0.694458, 8.605957, 0.244141, -20.324707
660612, 0.271484, 0.705200, -0.710571, 9.826660, 2.014160, -21.118164
660632, 0.243408, 0.681274, -0.717285, 8.300781, 6.835939, -22.460945
660652, 0.217407, 0.639771, -0.702515, 5.371094, 19.042969, -22.644051
660672, 0.262695, 0.610352, -0.720703, -2.197266, 31.372078, -25.512703
660692, 0.286011, 0.680908, -0.688599, -8.972168, 35.827637, -30.822762
660712, 0.253540, 0.733643, -0.627808, -7.324221, 29.174812, -30.151375
660732, 0.279541, 0.707642, -0.641235, -4.577637, 31.799324, -25.878914
660752, 0.326660, 0.659912, -0.654297, -5.615236, 40.649414, -26.184090
660772, 0.360229, 0.608521, -0.688110, -12.878422, 48.278824, -32.714844
660792, 0.351440, 0.634888, -0.697998, -26.489265, 58.593765, -44.555679
660812, 0.321289, 0.771362, -0.619873, -32.165527, 53.466812, -51.513687
660832, 0.266846, 0.867065, -0.496704, -23.742683, 38.391113, -47.424332
660852, 0.278198, 0.848755, -0.479248, -12.329105, 30.151375, -39.123535
660872, 0.300903, 0.782104, -0.552612, -10.437012, 36.560059, -39.367676
660892, 0.272949, 0.714966, -0.579956, -26.245125, 47.241226, -39.855957
660912, 0.289307, 0.742798, -0.487305, -36.193848, 39.489746, -36.560059
660932, 0.247437, 0.865601, -0.388550, -35.400391, 31.616219, -27.404793
660952, 0.213257, 0.906128, -0.287476, -23.864754, 21.118164, -9.582520
660972, 0.251099, 0.893311, -0.265259, -6.958010, 20.080566, 1.464844
660992, 0.315186, 0.825928, -0.343628, 3.295899, 27.709969, -0.976563
661012, 0.393311, 0.862793, -0.406006, 4.577637, 34.667969, -8.361816
661032, 0.413208, 0.907837, -0.359009, 7.019045, 16.296387, -11.047363
661052, 0.395630, 0.897339, -0.329102, 14.770512, -18.676758, -9.704590
661072, 0.349487, 0.894775, -0.405029, 19.836426, -39.184570, -10.437012
661092, 0.229858, 0.942383, -0.492554, 17.456055, -37.292480, -9.033203
661112, 0.194092, 0.943115, -0.454346, 17.272949, -35.583496, 0.549316
661132, 0.184814, 0.888916, -0.453979, 17.333984, -31.555183, 10.986328
661152, 0.190063, 0.825562, -0.507568, 12.817387, -17.028809, 19.836426
661172, 0.232056, 0.788452, -0.520752, 5.065918, 0.366211, 23.559578
661192, 0.307495, 0.765503, -0.522827, 0.854492, 8.605957, 20.812988
661212, 0.368896, 0.753906, -0.537109, -1.037598, 3.112794, 13.854984
661232, 0.364746, 0.777588, -0.558472, -1.037598, -7.568361, 3.479005
661252, 0.315063, 0.820801, -0.605591, -1.586915, -15.563969, -4.943848
661272, 0.209106, 0.839355, -0.619995, -5.065918, -13.488773, -0.366211
661292, 0.190918, 0.811768, -0.611694, -8.300781, -3.845216, 7.690432
661312, 0.203491, 0.826294, -0.631470, -11.901859, 12.207035, 10.253906
661332, 0.261230, 0.800293, -0.609985, -16.235352, 22.155769, 10.437012
661352, 0.330322, 0.756348, -0.569214, -17.700195, 20.019531, 7.995607
661372, 0.342529, 0.732788, -0.565308, -22.277840, 12.817387, 3.112794
661392, 0.322266, 0.770508, -0.546021, -29.724129, 7.019045, 0.305176
661412, 0.276123, 0.879028, -0.461548, -28.930672, -0.610352, 2.197266
661432, 0.243408, 0.917847, -0.391968, -20.019531, -4.699707, 8.300781
661452, 0.232300, 0.929321, -0.391113, -10.437012, 5.859377, 13.183598
661472, 0.277710, 0.866577, -0.414795, -4.821777, 28.747566, 15.930180
661512, 0.386597, 0.788940, -0.414673, -7.873537, 35.461426, 11.718754
661532, 0.379150, 0.859009, -0.403320, -7.324221, 31.372078, 9.338379
661552, 0.372803, 0.906738, -0.371948, -0.793457, 27.160652, 8.361816
661572, 0.405273, 0.911987, -0.370239, 9.277344, 20.446777, 5.371094
661592, 0.398682, 0.902954, -0.420654, 16.418457, 22.277840, -0.183106
661612, 0.367188, 0.862061, -0.462158, 19.104004, 26.672371, -0.549316
661632, 0.337769, 0.816528, -0.489502, 17.272949, 34.912109, 0.366211
661652, 0.339111, 0.781494, -0.516479, 10.864258, 51.330582, 0.793457
661672, 0.393921, 0.700684, -0.495605, 8.972168, 52.917496, 1.159668
661692, 0.411743, 0.854858, -0.507935, 3.601075, 37.719727, -0.183106
661712, 0.408569, 0.792847, -0.436768, 3.417970, 25.024422, -3.662110
661732, 0.411743, 0.807007, -0.399292, 6.591799, 14.343266, -8.361816
661752, 0.453491, 0.792603, -0.420776, 7.690432, -4.333496, -11.596684
661772, 0.463501, 0.776245, -0.436646, 4.516602, -27.404793, -13.732914
661792, 0.436401, 0.787354, -0.437378, -1.220703, -48.400894, -16.662598
661812, 0.384888, 0.853027, -0.410034, -3.417970, -64.697266, -15.380863
661832, 0.317871, 0.885986, -0.379761, -0.854492, -73.547363, -10.742188
661852, 0.275269, 0.882324, -0.384766, 6.347658, -63.720718, -5.859377
661872, 0.269043, 0.841797, -0.408203, 10.131836, -48.278824, -4.211426
661892, 0.257080, 0.849243, -0.467041, 12.023930, -30.944832, -2.197266
661912, 0.238281, 0.868896, -0.513306, 12.146000, -15.441898, 1.525879
661932, 0.242798, 0.847900, -0.524658, 11.535648, -6.103518, 6.835939
661952, 0.272095, 0.800049, -0.522095, 8.911133, -0.427246, 10.681152
661972, 0.302856, 0.761475, -0.522461, 4.150391, 3.601075, 11.474613
661992, 0.313354, 0.756714, -0.531860, -1.953125, 6.591799, 12.023930
662012, 0.313965, 0.790894, -0.525146, -6.591799, 9.582520, 14.526371
662032, 0.338745, 0.837036, -0.492065, -6.347658, 11.230473, 19.775391
662052, 0.375488, 0.856445, -0.482544, -2.380371, 10.803223, 18.859863
662072, 0.402954, 0.853149, -0.478394, 1.464844, 8.239746, 13.610844
662092, 0.402588, 0.836792, -0.469727, 4.272461, 2.258301, 7.385256
662112, 0.392578, 0.811401, -0.454224, 5.798342, -4.638672, 4.821777
662132, 0.382690, 0.816528, -0.449585, 7.446291, -7.019045, 4.943848
662152, 0.379272, 0.816772, -0.462158, 10.070801, -1.281738, 5.859377
662172, 0.405273, 0.810425, -0.489258, 13.671879, 5.004883, 5.798342
662192, 0.427124, 0.791016, -0.523926, 15.991215, 4.333496, 4.760742
662212, 0.428833, 0.757324, -0.545410, 15.380863, -5.859377, 3.540040
662232, 0.420410, 0.722656, -0.555908, 8.605957, -15.136723, -2.563477
662252, 0.376099, 0.750000, -0.548096, 4.516602, -16.235352, -7.568361
662272, 0.309082, 0.799927, -0.542236, 3.784181, -15.563969, -8.239746
662292, 0.273682, 0.814087, -0.528442, 4.638672, -12.878422, -4.516602
662312, 0.283691, 0.788452, -0.509033, 5.065918, -6.713869, -0.244141
662332, 0.300293, 0.795898, -0.500488, 4.760742, 0.976563, 1.098633
662352, 0.305298, 0.819946, -0.498779, 6.103518, 5.371094, 1.342773
662372, 0.329102, 0.816772, -0.497925, 8.605957, 6.896975, 3.051759
662392, 0.365723, 0.805542, -0.508301, 10.314941, 7.873537, 3.784181
662412, 0.390137, 0.805054, -0.518555, 12.451176, 9.277344, 0.732422
662432, 0.404907, 0.786987, -0.507568, 15.136723, 5.432129, 0.061035
662452, 0.419434, 0.741089, -0.513062, 18.981934, -2.807618, -0.061035
662472, 0.424072, 0.702271, -0.560669, 21.362305, -5.859377, -2.990724
662492, 0.419067, 0.682373, -0.619141, 18.920898, -3.295899, -7.812502
662512, 0.400757, 0.688354, -0.646606, 12.817387, -3.479005, -10.253906
662532, 0.366333, 0.709961, -0.635864, 6.591799, -7.995607, -9.765625
662552, 0.337524, 0.718994, -0.612793, 2.258301, -11.718754, -8.361816
662572, 0.309937, 0.734741, -0.596558, -0.366211, -8.911133, -7.934572
662592, 0.288940, 0.747559, -0.577881, -2.380371, -4.150391, -6.408693
662612, 0.281128, 0.768433, -0.560059, -4.699707, -2.502441, -1.159668
662632, 0.288696, 0.760132, -0.553955, -7.629396, -3.479005, 2.990724
662652, 0.278564, 0.783569, -0.560913, -10.192871, -3.295899, 5.371094
662672, 0.266846, 0.810791, -0.560303, -10.925293, -0.122070, 7.751467
662692, 0.287476, 0.830322, -0.538818, -8.789063, 2.868653, 12.207035
662712, 0.323486, 0.803711, -0.520020, -4.943848, 2.014160, 18.615723
662732, 0.362183, 0.765503, -0.535156, -2.685547, 0.000000, 22.155769
662752, 0.379150, 0.749878, -0.561401, -3.662110, -0.305176, 22.094727
662772, 0.377686, 0.759155, -0.566284, -6.286623, 0.183106, 20.812988
662792, 0.392700, 0.777710, -0.531860, -6.042482, -0.549316, 21.606445
662812, 0.413452, 0.758545, -0.519165, -3.906251, -4.089355, 21.850586
662832, 0.416748, 0.742432, -0.535767, -2.685547, -7.019045, 18.310547
662852, 0.400513, 0.723389, -0.553711, -4.028320, -7.080080, 14.404301
662872, 0.380981, 0.731689, -0.558228, -6.347658, -5.126953, 13.183598
662892, 0.377197, 0.751831, -0.550781, -7.202150, -0.549316, 13.427738
662912, 0.385620, 0.749146, -0.538330, -5.920412, 5.676271, 13.122562
662932, 0.407837, 0.734375, -0.542847, -4.638672, 9.216309, 11.474613
662952, 0.427246, 0.733154, -0.553345, -4.821777, 8.972168, 9.887695
662972, 0.438477, 0.739990, -0.551025, -5.432129, 7.690432, 9.094238
662992, 0.459717, 0.751953, -0.521118, -4.882813, 6.408693, 7.080080
663012, 0.476318, 0.748779, -0.504883, -2.990724, 5.371094, 4.699707
663032, 0.488403, 0.742432, -0.499512, -0.671387, 2.563477, 2.258301
663052, 0.497437, 0.752075, -0.510254, 1.281738, -0.915528, -0.427246
663072, 0.491333, 0.757690, -0.521606, 2.685547, -4.272461, -4.211426
663092, 0.474243, 0.740234, -0.528442, 3.662110, -7.568361, -8.666992
663112, 0.454102, 0.726074, -0.540894, 3.051759, -10.925293, -13.183598
663132, 0.427856, 0.725830, -0.560303, -0.488281, -11.779789, -16.845703
663152, 0.401611, 0.745850, -0.564941, -5.615236, -10.620117, -19.897461
663172, 0.365112, 0.767822, -0.526489, -7.568361, -10.253906, -22.094727
663192, 0.350952, 0.775879, -0.535400, -7.629396, -8.056641, -23.803719
663212, 0.340454, 0.786377, -0.527954, -7.080080, -4.455566, -22.399910
663232, 0.335327, 0.785767, -0.512939, -5.981447, -5.310059, -17.761230
663253, 0.337036, 0.773315, -0.513062, -4.333496, -5.676271, -12.573246
663273, 0.343994, 0.767944, -0.526855, -4.943848, -4.943848, -9.643555
663293, 0.334961, 0.776001, -0.534546, -6.347658, -3.112794, -8.117676
663313, 0.333130, 0.794800, -0.522705, -6.652834, -1.464844, -4.638672
663333, 0.352173, 0.810059, -0.506958, -5.310059, -1.770020, 2.258301
663353, 0.386108, 0.786987, -0.505859, -2.685547, -4.760742, 4.150391
663373, 0.388428, 0.771973, -0.528809, -2.685547, -8.789063, 2.136230
663393, 0.359619, 0.787354, -0.542969, -3.234864, -9.155273, -1.708985
663413, 0.333130, 0.800415, -0.528687, -2.197266, -8.178711, -2.624512
663433, 0.315674, 0.787720, -0.523193, -1.586915, -3.967286, -1.586915
663453, 0.309326, 0.781372, -0.514526, -2.136230, 1.708985, -0.427246
663473, 0.313110, 0.778931, -0.499634, -3.295899, 10.681152, 0.244141
663493, 0.336914, 0.801514, -0.488403, -3.784181, 18.005371, 2.136230
663513, 0.370361, 0.831177, -0.477173, -3.417970, 19.775391, 3.967286
663533, 0.417847, 0.849365, -0.451294, 2.624512, 12.390141, 3.601075
663553, 0.428223, 0.839722, -0.451660, 9.216309, 3.295899, -0.427246
663573, 0.417480, 0.833008, -0.471680, 15.136723, -3.784181, -3.662110
663593, 0.405884, 0.806396, -0.489868, 17.700195, -8.605957, -4.638672
663613, 0.385498, 0.794800, -0.502808, 18.859863, -9.826660, -4.211426
663633, 0.373901, 0.784912, -0.514526, 20.568848, -7.812502, -3.540040
663653, 0.383667, 0.787231, -0.527588, 22.155769, -6.042482, -2.929688
663673, 0.397217, 0.784790, -0.537354, 23.071297, -6.958010, -3.479005
663693, 0.406738, 0.768799, -0.537720, 24.047859, -9.399414, -7.019045
663713, 0.401245, 0.767212, -0.542358, 24.780281, -15.686039, -13.305668
663733, 0.362549, 0.774780, -0.558838, 25.512703, -20.874023, -14.831547
663753, 0.338379, 0.737549, -0.567261, 25.268562, -24.169930, -15.502934
663773, 0.309814, 0.715088, -0.591064, 23.193367, -22.277840, -14.709476
663793, 0.281006, 0.703857, -0.616821, 19.531250, -16.723633, -12.573246
663813, 0.268188, 0.700073, -0.631836, 15.747074, -11.230473, -10.375977
663833, 0.264038, 0.709106, -0.641113, 12.207035, -7.080080, -7.690432
663853, 0.255127, 0.725830, -0.638916, 8.911133, -4.699707, -5.310059
663873, 0.234985, 0.737915, -0.638306, 6.896975, -3.417970, -3.234864
663893, 0.218018, 0.720825, -0.636597, 4.699707, -1.098633, -0.854492
663913, 0.207886, 0.735229, -0.655640, 0.854492, 4.943848, 4.028320
663933, 0.208618, 0.744263, -0.665649, -1.831055, 10.803223, 10.192871
663953, 0.244995, 0.776855, -0.652710, -3.051759, 17.883301, 15.563969
663973, 0.306641, 0.817383, -0.605957, 0.732422, 21.606445, 16.845703
663993, 0.356934, 0.774780, -0.572876, 6.896975, 16.113281, 16.662598
664013, 0.371948, 0.699341, -0.601929, 9.094238, 2.563477, 15.258793
664033, 0.367920, 0.631592, -0.658813, 2.807618, -1.525879, 12.756351
664053, 0.378540, 0.622192, -0.645874, -8.056641, 5.371094, 15.258793
664073, 0.429321, 0.693848, -0.577637, -12.207035, 10.925293, 17.883301
664093, 0.468872, 0.769409, -0.559448, -1.403809, 0.793457, 17.578125
664113, 0.476929, 0.772461, -0.611572, 4.821777, -12.878422, 16.845703
664133, 0.466797, 0.730103, -0.637329, 4.577637, -23.132332, 11.535648
664153, 0.410522, 0.709595, -0.614136, 2.807618, -30.700691, 5.065918
664173, 0.331177, 0.687134, -0.585449, 2.868653, -33.142090, 2.685547
664193, 0.286865, 0.666626, -0.592529, 2.136230, -25.695808, 3.784181
664213, 0.279907, 0.689453, -0.608765, -0.427246, -11.169437, 7.568361
664233, 0.304565, 0.738647, -0.601563, -1.586915, 0.976563, 12.756351
664253, 0.353638, 0.762329, -0.592163, 1.281738, 3.417970, 16.967773
664273, 0.404053, 0.760132, -0.619873, 4.882813, -1.831055, 18.188477
664293, 0.411255, 0.735718, -0.659790, 5.920412, -11.718754, 15.197758
664313, 0.391235, 0.720093, -0.640015, 6.652834, -16.967773, 14.892582
664333, 0.365601, 0.703125, -0.625610, 8.605957, -19.836426, 16.052246
664353, 0.335083, 0.692383, -0.646118, 9.704590, -17.822266, 18.615723
664373, 0.320313, 0.671631, -0.679932, 7.812502, -12.329105, 20.202637
664393, 0.318726, 0.677002, -0.686768, 3.417970, -5.676271, 22.521980
664413, 0.331421, 0.659912, -0.658569, -1.220703, -0.610352, 26.306160
664433, 0.357056, 0.642212, -0.635132, -5.187988, 2.624512, 29.235847
664453, 0.369263, 0.685181, -0.625000, -7.141115, 10.192871, 30.395515
664473, 0.446289, 0.654541, -0.589600, -4.760742, 16.540527, 29.357918
664493, 0.477051, 0.641235, -0.614868, -3.784181, 15.136723, 26.916512
664513, 0.497314, 0.619141, -0.637207, -6.652834, 11.901859, 23.071297
664533, 0.492065, 0.615967, -0.633057, -11.230473, 5.798342, 18.920898
664553, 0.455566, 0.626709, -0.604736, -14.038090, -1.647950, 17.272949
664573, 0.420044, 0.611084, -0.589844, -15.502934, -4.882813, 17.883301
664593, 0.406860, 0.638550, -0.604736, -16.906738, 0.305176, 18.798828
664613, 0.443359, 0.685547, -0.603760, -16.967773, 9.704590, 17.456055
664633, 0.515015, 0.716064, -0.581177, -12.817387, 12.817387, 11.779789
664653, 0.562744, 0.700317, -0.567139, -5.371094, 1.647950, 3.417970
664673, 0.526001, 0.599487, -0.613403, 1.525879, -23.986824, -10.009766
664713, 0.413208, 0.558228, -0.633423, -6.103518, -24.414070, -18.554688
664733, 0.402588, 0.597046, -0.599365, -5.859377, -15.075687, -17.578125
664753, 0.425537, 0.643677, -0.600708, -3.051759, -10.253906, -16.967773
664773, 0.432373, 0.704590, -0.635254, -1.892090, -12.146000, -16.357422
664793, 0.420288, 0.744019, -0.660645, -2.990724, -20.324707, -16.601563
664813, 0.370728, 0.760986, -0.658447, -2.807618, -28.869637, -18.371582
664833, 0.293213, 0.745361, -0.663086, -2.624512, -29.724129, -18.188477
664853, 0.221436, 0.729492, -0.671631, -6.713869, -12.146000, -11.596684
664873, 0.216919, 0.754761, -0.636230, -8.239746, 3.967286, -4.028320
664893, 0.254639, 0.731079, -0.597656, -5.981447, 15.319828, 3.417970
664913, 0.325195, 0.685181, -0.606567, -3.479005, 19.958496, 6.347658
664933, 0.377563, 0.638916, -0.649048, -4.394531, 20.446777, 3.051759
664953, 0.405884, 0.616211, -0.663574, -7.507326, 18.310547, -3.051759
664973, 0.421509, 0.625488, -0.637451, -9.155273, 14.160160, -9.643555
664993, 0.416626, 0.640869, -0.616699, -9.521484, 10.314941, -14.587406
665013, 0.389893, 0.696899, -0.628296, -11.596684, 9.277344, -13.854984
665033, 0.369873, 0.750122, -0.623413, -15.930180, 11.535648, -5.310059
665053, 0.407837, 0.833984, -0.536865, -16.906738, 23.864754, 11.352543
665073, 0.461914, 0.830200, -0.474365, -11.230473, 26.794441, 17.456055
665093, 0.515503, 0.794067, -0.462524, -3.967286, 20.935059, 16.906738
665113, 0.542969, 0.744751, -0.496826, 0.610352, 10.559082, 11.108402
665133, 0.536621, 0.704468, -0.531860, 1.403809, 1.342773, 3.234864
665153, 0.508667, 0.687378, -0.537842, 0.488281, -5.004883, -3.173829
665173, 0.470337, 0.695313, -0.538696, 1.098633, -8.239746, -6.896975
665193, 0.429565, 0.700073, -0.561646, 3.234864, -8.911133, -7.568361
665213, 0.406494, 0.703979, -0.598511, 3.662110, -6.225588, -6.774904
665233, 0.401733, 0.697754, -0.596802, -1.708985, -2.014160, -4.516602
665253, 0.406006, 0.724731, -0.561890, -3.479005, -1.770020, -2.563477
665273, 0.413574, 0.747070, -0.540161, -1.464844, -1.770020, -1.342773
665293, 0.422729, 0.754517, -0.544312, 1.098633, -0.610352, -0.549316
665313, 0.433228, 0.756470, -0.548218, 1.403809, -1.892090, 1.220703
665333, 0.432983, 0.756226, -0.545410, 1.586915, -4.089355, 2.502441
665353, 0.432373, 0.744751, -0.541138, 2.929688, -6.286623, 2.441406
665373, 0.434692, 0.732422, -0.551147, 4.089355, -6.286623, 0.122070
665393, 0.424561, 0.710815, -0.565063, 4.943848, -6.591799, -1.403809
665413, 0.409668, 0.693604, -0.585938, 4.394531, -7.446291, -2.807618
665433, 0.385742, 0.688232, -0.590576, 1.708985, -5.432129, -2.807618
665453, 0.391235, 0.693726, -0.579834, -0.122070, -2.502441, -2.014160
665473, 0.395386, 0.713135, -0.583862, 0.549316, -0.671387, 0.000000
665493, 0.400024, 0.722656, -0.593872, 0.671387, -1.281738, 1.281738
665513, 0.401611, 0.726807, -0.603394, 0.305176, -1.770020, 1.647950
665533, 0.393799, 0.729126, -0.599854, 0.061035, -1.464844, 1.831055
665553, 0.394897, 0.708984, -0.585449, 0.488281, -0.793457, 1.831055
665573, 0.394165, 0.687866, -0.582031, 0.061035, 1.586915, 1.403809
665593, 0.389893, 0.679443, -0.583496, -2.075195, 5.249023, 2.075195
665613, 0.398193, 0.744629, -0.572266, -4.272461, 9.948730, 3.173829
665633, 0.400513, 0.754395, -0.564941, -2.685547, 11.047363, 4.394531
665653, 0.411499, 0.756592, -0.567261, -2.014160, 12.084965, 4.699707
665673, 0.423828, 0.737061, -0.545044, -2.258301, 12.268070, 5.187988
665693, 0.438354, 0.744629, -0.523804, -1.464844, 10.070801, 5.798342
665713, 0.451172, 0.767822, -0.523804, 0.915528, 8.056641, 5.187988
665733, 0.464478, 0.758911, -0.530396, 4.699707, 7.080080, 3.601075
665753, 0.491455, 0.743408, -0.549194, 8.178711, 4.699707, -0.305176
665773, 0.498657, 0.708374, -0.558228, 10.314941, 1.342773, -4.638672
665793, 0.479004, 0.680054, -0.583130, 10.742188, -3.173829, -5.737307
665813, 0.448120, 0.653931, -0.588745, 6.896975, -6.225588, -3.540040
665833, 0.438721, 0.639893, -0.583984, 4.028320, -4.577637, -2.929688
665853, 0.432983, 0.648926, -0.585815, 0.549316, -0.854492, -4.089355
665873, 0.429321, 0.687988, -0.580444, -2.929688, 1.708985, -4.089355
665893, 0.437866, 0.736450, -0.562012, -3.906251, 3.417970, -2.929688
665913, 0.453979, 0.781250, -0.546387, -0.915528, 3.417970, -2.441406
665933, 0.464966, 0.784058, -0.534424, 4.028320, -0.244141, -3.234864
665953, 0.481323, 0.754150, -0.535034, 7.690432, -5.004883, -6.042482
665973, 0.473755, 0.725708, -0.543213, 9.765625, -11.047363, -9.887695
665993, 0.425659, 0.682373, -0.584961, 11.535648, -16.235352, -14.587406
666013, 0.389038, 0.658813, -0.624512, 8.850098, -14.465336, -15.197758
666033, 0.357788, 0.664917, -0.636353, 3.112794, -8.850098, -12.634281
666053, 0.352783, 0.700195, -0.603882, -0.244141, -2.136230, -8.544922
666073, 0.368408, 0.731323, -0.574585, 0.305176, 2.929688, -5.615236
666093, 0.384766, 0.743652, -0.571777, 2.624512, 4.150391, -4.882813
666113, 0.397705, 0.733276, -0.584595, 3.173829, 1.953125, -5.798342
666133, 0.401611, 0.720093, -0.585083, 1.953125, -1.831055, -6.164553
666153, 0.388672, 0.724609, -0.576538, 1.159668, -5.859377, -3.967286
666173, 0.370239, 0.721313, -0.581909, 2.197266, -6.469728, -1.098633
666193, 0.381226, 0.696045, -0.606934, 1.037598, -0.488281, 2.258301
666213, 0.407593, 0.683228, -0.599976, -1.647950, 2.014160, 2.685547
666233, 0.423096, 0.700562, -0.586548, -2.197266, 0.427246, 2.197266
666253, 0.427246, 0.723999, -0.587524, -0.671387, -2.746582, 1.220703
666273, 0.421631, 0.721680, -0.590332, 0.610352, -6.835939, 1.892090
666293, 0.408203, 0.709473, -0.596680, 0.488281, -9.521484, 3.845216
666313, 0.391724, 0.702759, -0.605103, -1.281738, -9.338379, 5.249023
666333, 0.380249, 0.699829, -0.604614, -2.563477, -6.164553, 5.187988
666353, 0.386353, 0.701294, -0.595947, -3.479005, -2.197266, 3.845216
666373, 0.401001, 0.729248, -0.584595, -3.112794, -2.380371, 2.319336
666393, 0.395996, 0.737915, -0.579590, -2.868653, -4.699707, 2.746582
666413, 0.382568, 0.734253, -0.572144, -1.953125, -7.324221, 3.356935
666433, 0.372559, 0.719238, -0.583740, -0.976563, -6.286623, 3.417970
666453, 0.367188, 0.712402, -0.602783, -0.976563, -2.441406, 3.479005
666473, 0.380249, 0.709717, -0.609375, -1.831055, 1.464844, 4.882813
666493, 0.404175, 0.716797, -0.602417, -2.868653, 2.624512, 6.713869
666513, 0.418457, 0.713745, -0.583130, -3.234864, 0.671387, 7.690432
666533, 0.418701, 0.718262, -0.567993, -3.295899, -2.990724, 8.178711
666553, 0.412354, 0.726563, -0.560303, -1.892090, -5.615236, 7.507326
666573, 0.387451, 0.739502, -0.582764, 0.183106, -4.333496, 9.460449
666593, 0.390503, 0.723267, -0.586426, 0.427246, -1.464844, 10.437012
666613, 0.415405, 0.713989, -0.580200, 0.366211, 0.976563, 9.155273
666633, 0.429199, 0.717041, -0.581787, 2.258301, 0.671387, 6.530764
666653, 0.433716, 0.727417, -0.587891, 3.540040, -1.281738, 3.784181
666673, 0.432861, 0.713013, -0.590576, 5.126953, -3.356935, 2.197266
666693, 0.424683, 0.698486, -0.591064, 4.760742, -5.310059, 0.854492
666713, 0.413940, 0.677002, -0.595581, 3.967286, -4.638672, 1.159668
666733, 0.419067, 0.672119, -0.605591, 2.380371, -2.624512, 1.159668
666753, 0.412231, 0.687744, -0.618164, 0.793457, 0.183106, -1.708985
666773, 0.419434, 0.680786, -0.619507, 0.610352, 1.159668, -2.929688
666793, 0.419434, 0.671509, -0.616211, -0.244141, 0.976563, -4.943848
666813, 0.406250, 0.676025, -0.619507, -1.525879, 1.708985, -6.164553
666833, 0.403809, 0.692139, -0.626587, -2.258301, 3.723145, -7.019045
666853, 0.410645, 0.706543, -0.617920, -2.624512, 5.920412, -7.629396
666873, 0.431519, 0.701050, -0.592896, -1.708985, 5.371094, -7.751467
666893, 0.434326, 0.698853, -0.585815, -0.610352, 1.953125, -8.789063
666933, 0.390137, 0.724121, -0.585815, -1.647950, 0.976563, -5.859377
666953, 0.395264, 0.745972, -0.550415, -2.014160, 5.432129, -4.211426
666993, 0.432251, 0.764038, -0.534424, 2.380371, 3.540040, -3.845216
667053, 0.451782, 0.742920, -0.588013, 17.028809, -8.850098, -13.427738
667073, 0.420898, 0.699219, -0.612915, 17.089844, -14.953617, -14.282230
667093, 0.376465, 0.648315, -0.620850, 13.610844, -16.906738, -11.901859
667113, 0.336060, 0.607422, -0.627808, 8.178711, -13.488773, -7.690432
667133, 0.331543, 0.619995, -0.640747, -1.037598, 1.098633, -2.624512
667153, 0.352173, 0.684448, -0.631958, -4.821777, 9.155273, 1.159668
667173, 0.385376, 0.753174, -0.618774, -3.662110, 10.009766, 5.126953
667193, 0.426392, 0.758423, -0.602905, -0.732422, 5.737307, 5.798342
667213, 0.451904, 0.733398, -0.586670, 0.915528, -1.708985, 2.197266
667233, 0.433350, 0.718994, -0.575439, 2.502441, -10.620117, -2.624512
667253, 0.389526, 0.710571, -0.593140, 3.906251, -13.549809, -6.896975
667273, 0.347168, 0.728027, -0.616943, 4.516602, -11.230473, -7.385256
667293, 0.330322, 0.709839, -0.621338, 3.784181, -6.408693, -3.417970
667313, 0.353760, 0.696289, -0.617188, 1.770020, -2.868653, 0.854492
667333, 0.375488, 0.709106, -0.622925, 1.464844, -2.746582, 1.281738
667353, 0.366821, 0.722290, -0.642212, 3.479005, -5.187988, -0.671387
667373, 0.347168, 0.693848, -0.658813, 4.394531, -7.995607, -1.831055
667393, 0.328369, 0.655396, -0.664063, 1.464844, -6.408693, -1.464844
667413, 0.323608, 0.643066, -0.644287, -3.601075, -0.366211, 0.793457
667433, 0.331909, 0.672729, -0.624634, -6.896975, 7.263186, 4.760742
667453, 0.358887, 0.723145, -0.618408, -6.591799, 12.084965, 8.789063
667473, 0.396851, 0.736450, -0.614868, -4.333496, 10.314941, 10.986328
667493, 0.421875, 0.718140, -0.609253, -3.051759, 5.615236, 9.704590
667513, 0.412964, 0.719604, -0.568359, -6.164553, -0.610352, 7.385256
667533, 0.405762, 0.741211, -0.541260, -3.356935, 0.061035, 6.408693
667553, 0.421631, 0.727295, -0.555298, 2.563477, 3.540040, 2.990724
667573, 0.446289, 0.682373, -0.597900, 5.126953, 3.967286, -1.953125
667593, 0.455200, 0.635742, -0.619141, 2.258301, -1.708985, -5.065918
667613, 0.462646, 0.647949, -0.606079, -2.014160, -4.943848, -5.371094
667633, 0.451538, 0.717773, -0.592041, -0.183106, -5.371094, -5.371094
667653, 0.435791, 0.734863, -0.602295, 5.859377, -6.958010, -5.065918
667673, 0.426270, 0.715698, -0.642578, 7.873537, -11.840824, -4.943848
667693, 0.397095, 0.692627, -0.645752, 4.455566, -17.211914, -6.042482
667713, 0.337769, 0.714355, -0.576782, 2.075195, -17.395020, -6.103518
667733, 0.315186, 0.720703, -0.574585, 6.591799, -13.244633, -5.187988
667753, 0.316040, 0.716919, -0.627563, 8.300781, -6.408693, -4.699707
667773, 0.329712, 0.705566, -0.653564, 4.699707, -0.915528, -4.333496
667793, 0.336548, 0.730469, -0.622559, 1.098633, 0.427246, -2.929688
667813, 0.334473, 0.772705, -0.587158, 3.295899, -2.868653, -1.708985
667833, 0.328979, 0.750366, -0.594482, 9.338379, -5.676271, -2.380371
667853, 0.321899, 0.686768, -0.649048, 10.437012, -6.103518, -3.906251
667873, 0.316162, 0.649292, -0.688232, 4.943848, -2.929688, -3.356935
667893, 0.334595, 0.691650, -0.656494, -1.586915, 6.591799, 1.525879
667913, 0.371948, 0.720215, -0.612793, 0.915528, 8.911133, 3.662110
667933, 0.409302, 0.704956, -0.613647, 5.981447, 5.676271, 3.234864
667973, 0.404419, 0.668457, -0.670166, 4.943848, -6.225588, -3.051759
667993, 0.360229, 0.666138, -0.670532, 1.831055, -9.094238, -4.150391
668013, 0.323486, 0.671021, -0.662476, -0.183106, -7.812502, -2.929688
668033, 0.306763, 0.677490, -0.660034, -1.892090, -4.028320, -1.342773
668053, 0.299683, 0.682983, -0.662720, -3.417970, 1.464844, 1.342773
668073, 0.325928, 0.684692, -0.656006, -5.371094, 9.948730, 3.967286
668093, 0.366577, 0.690186, -0.635986, -6.408693, 10.314941, 3.662110
668113, 0.381104, 0.672363, -0.634399, -6.713869, 8.483887, 2.746582
668133, 0.381592, 0.686157, -0.642090, -8.605957, 8.850098, 2.258301
668153, 0.387695, 0.738403, -0.615723, -9.826660, 11.779789, 3.112794
668173, 0.404297, 0.764038, -0.560913, -5.920412, 9.765625, 5.004883
668193, 0.437256, 0.736938, -0.549561, 0.793457, 3.906251, 5.187988
668213, 0.456299, 0.700195, -0.600220, 4.760742, -1.403809, 0.488281
668233, 0.424194, 0.685425, -0.650635, 3.234864, -5.615236, -4.699707
668253, 0.371826, 0.678223, -0.660156, -0.366211, -10.009766, -5.920412
668273, 0.307007, 0.709106, -0.638916, -3.417970, -8.361816, -2.990724
668293, 0.296021, 0.707642, -0.620361, -3.295899, 0.244141, 2.624512
668313, 0.353271, 0.689331, -0.609985, -3.051759, 8.666992, 5.981447
668333, 0.395996, 0.692505, -0.618408, -3.295899, 11.596684, 3.784181
668353, 0.393311, 0.716064, -0.620361, -4.638672, 7.812502, 0.793457
668373, 0.382446, 0.747314, -0.608276, -3.540040, 2.075195, 1.342773
668393, 0.380249, 0.730347, -0.591309, -0.976563, -1.281738, 4.028320
668413, 0.395020, 0.689209, -0.601685, 1.037598, 0.854492, 6.042482
668433, 0.413696, 0.664307, -0.628662, -0.305176, 2.929688, 3.234864
668453, 0.401245, 0.682373, -0.607056, -5.981447, 4.516602, -1.708985
668473, 0.387329, 0.734009, -0.579956, -4.699707, 3.906251, -1.159668
668493, 0.393799, 0.739746, -0.570068, 0.122070, 2.624512, 1.403809
668513, 0.406616, 0.708984, -0.603394, 2.807618, 1.281738, 2.563477
668533, 0.411621, 0.683228, -0.614746, 0.549316, -0.244141, 0.854492
668553, 0.395142, 0.729858, -0.607910, -1.708985, -0.305176, -1.708985
668573, 0.379395, 0.754517, -0.573120, -0.183106, -2.014160, -1.159668
668593, 0.400635, 0.731812, -0.545654, 4.577637, -0.488281, -0.061035
668613, 0.414429, 0.717407, -0.586548, 8.239746, 0.976563, -1.037598
668633, 0.421143, 0.688354, -0.628784, 8.239746, 1.708985, -1.281738
668653, 0.414917, 0.676636, -0.651978, 3.723145, -3.601075, -3.479005
668673, 0.359009, 0.703491, -0.634399, 0.793457, -5.920412, -4.333496
668693, 0.344238, 0.703247, -0.599487, 0.305176, -3.234864, -1.281738
668713, 0.371582, 0.694702, -0.598511, 2.197266, 2.502441, 2.136230
668733, 0.403320, 0.690063, -0.615601, 2.929688, 7.629396, 2.624512
668753, 0.425781, 0.707520, -0.611450, 1.953125, 4.760742, 1.281738
668773, 0.427734, 0.727051, -0.593140, 2.502441, -2.197266, -0.732422
668793, 0.407104, 0.720093, -0.589111, 4.638672, -6.469728, -2.380371
668813, 0.387085, 0.695435, -0.608032, 6.347658, -5.187988, -3.356935
668833, 0.361572, 0.696899, -0.626587, 4.455566, -0.732422, -1.403809
668853, 0.367676, 0.706543, -0.609253, 3.784181, 2.502441, 0.976563
668873, 0.399170, 0.686401, -0.606567, 5.249023, 4.943848, 2.197266
668893, 0.428467, 0.666870, -0.634888, 6.652834, 3.051759, 1.220703
668913, 0.413940, 0.661865, -0.667725, 4.516602, -1.708985, -1.831055
668933, 0.387085, 0.677368, -0.659058, 0.854492, -7.385256, -3.295899
668953, 0.356201, 0.699097, -0.632202, 0.244141, -8.850098, -2.563477
668973, 0.343384, 0.703003, -0.622437, 1.770020, -5.004883, -0.427246
668993, 0.365479, 0.675415, -0.622803, 1.342773, 1.281738, 1.403809
669013, 0.394531, 0.685669, -0.624268, 0.244141, 5.310059, 1.281738
669033, 0.410156, 0.692017, -0.620972, 0.549316, 4.272461, -0.244141
669053, 0.407837, 0.680420, -0.636597, 1.525879, 0.183106, -1.953125
669073, 0.385132, 0.670654, -0.658569, 0.000000, -2.197266, -2.197266
669093, 0.367554, 0.675781, -0.652588, -2.868653, -1.831055, -1.220703
669113, 0.361816, 0.704834, -0.620483, -4.150391, 1.220703, 0.732422
669133, 0.380493, 0.712158, -0.584839, -3.051759, 4.760742, 2.563477
669153, 0.414063, 0.714966, -0.577026, -0.427246, 6.896975, 3.967286
669173, 0.432861, 0.725464, -0.593506, 1.892090, 5.432129, 3.356935
669193, 0.423340, 0.707642, -0.615356, 3.906251, 0.549316, 1.525879
669213, 0.392822, 0.670410, -0.651001, 3.479005, -6.408693, -2.319336
669233, 0.361450, 0.666748, -0.669556, 0.854492, -3.845216, -2.136230
669253, 0.364258, 0.665649, -0.647339, -2.624512, 2.319336, 1.892090
669293, 0.425049, 0.697754, -0.602539, -1.586915, 7.141115, 5.371094
669313, 0.445801, 0.697998, -0.618408, -0.061035, 3.112794, 3.784181
669333, 0.422607, 0.710815, -0.615845, -1.281738, -6.347658, 1.464844
669353, 0.380981, 0.737915, -0.588989, -1.342773, -10.986328, 1.342773
669373, 0.373535, 0.741699, -0.562744, 2.929688, -9.399414, 2.929688
669393, 0.382446, 0.692627, -0.589844, 7.812502, -2.441406, 2.990724
669413, 0.400879, 0.664307, -0.653442, 4.333496, 6.164553, 2.502441
669433, 0.417236, 0.693848, -0.614624, 0.610352, 6.896975, 2.685547
669453, 0.440308, 0.703369, -0.579346, 3.234864, 4.760742, 3.906251
669473, 0.474365, 0.677612, -0.599731, 7.202150, 1.525879, 2.990724
669493, 0.472534, 0.662842, -0.643677, 8.056641, -10.375977, -0.549316
669513, 0.408813, 0.667847, -0.679810, 5.187988, -17.639160, -3.540040
669533, 0.369141, 0.656860, -0.650635, 0.671387, -14.160160, -4.150391
669553, 0.364014, 0.660767, -0.599854, -1.342773, -3.784181, -1.220703
669573, 0.382690, 0.664307, -0.587646, -0.122070, 7.202150, 0.793457
669613, 0.434570, 0.634033, -0.723022, -7.568361, 5.920412, -6.774904
669653, 0.452759, 0.662109, -0.582031, -16.174316, 3.540040, -21.118164
669673, 0.433228, 0.775269, -0.589111, -9.887695, -1.159668, -23.986824
669693, 0.414673, 0.768433, -0.586914, -1.281738, -4.394531, -21.545410
669713, 0.455078, 0.713135, -0.593384, 4.028320, -7.751467, -24.597176
669733, 0.440552, 0.665161, -0.624878, 5.859377, -11.962894, -31.738289
669753, 0.388916, 0.630371, -0.669434, 2.441406, -20.080566, -33.752441
669773, 0.360718, 0.620483, -0.705933, -5.493164, -27.832039, -31.433113
669793, 0.252808, 0.674561, -0.699951, -13.854984, -31.677254, -19.226074
669813, 0.198364, 0.718140, -0.682861, -15.502934, -21.667480, -10.498047
669833, 0.224609, 0.694214, -0.680420, -13.610844, -3.662110, -4.577637
669853, 0.299927, 0.628662, -0.687744, -12.512211, 16.357422, -5.371094
669873, 0.374634, 0.564819, -0.669922, -13.488773, 26.794441, -9.521484
669893, 0.413086, 0.591675, -0.704102, -17.333984, 31.982430, -16.906738
669913, 0.414429, 0.643555, -0.744873, -27.099617, 36.743164, -28.625496
669933, 0.401733, 0.692017, -0.672241, -40.405273, 39.367676, -41.076660
669953, 0.365356, 0.826538, -0.545654, -45.349136, 34.545898, -48.706070
669973, 0.289429, 0.960083, -0.426636, -31.677254, 13.488773, -41.198730
669993, 0.325073, 0.873169, -0.513306, -24.475105, 16.784668, -37.719727
670013, 0.323608, 0.776489, -0.637329, -33.996582, 25.268562, -46.997086
670033, 0.224365, 0.860962, -0.648193, -54.748550, 26.855476, -59.814468
670053, 0.126831, 1.041870, -0.499390, -60.852066, 11.413578, -59.814468
670073, 0.055420, 1.096191, -0.347778, -47.607437, -12.329105, -46.203629
670093, 0.033936, 1.046753, -0.306152, -26.367195, -22.827156, -29.052742
670113, 0.056641, 0.934692, -0.342529, -7.141115, -16.235352, -21.850586
670133, 0.094482, 0.794678, -0.401123, 6.530764, -0.915528, -24.780281
670153, 0.141235, 0.678223, -0.472778, 8.972168, 7.934572, -34.545898
670173, 0.130615, 0.792114, -0.546143, 1.770020, 0.793457, -46.875015
670193, 0.013428, 0.894775, -0.509033, -3.234864, -17.211914, -31.738289
670213, 0.042603, 0.863037, -0.357544, -6.713869, -20.385742, -2.929688
670233, 0.147705, 0.797607, -0.242554, -2.319336, -6.774904, 13.427738
670253, 0.208130, 0.785034, -0.237183, 5.126953, 10.864258, 15.075687
670273, 0.218994, 0.824463, -0.291016, 11.474613, 23.437508, 15.136723
670293, 0.267700, 0.878906, -0.299927, 15.808109, 29.785164, 15.686039
670313, 0.343628, 0.910522, -0.263306, 22.338875, 24.353035, 12.878422
670333, 0.393066, 0.932251, -0.277344, 29.724129, 5.432129, 6.164553
670353, 0.301514, 1.057251, -0.469360, 31.616219, -28.930672, 8.789063
670373, 0.223145, 1.082642, -0.526855, 26.916512, -36.193848, 5.737307
670393, 0.174438, 1.071899, -0.428101, 30.822762, -33.691406, 3.540040
670413, 0.146240, 0.992188, -0.347778, 44.494644, -29.968269, 3.051759
670433, 0.123413, 0.894897, -0.382324, 59.753433, -20.690918, 2.685547
670473, 0.086914, 0.782227, -0.657837, 57.373062, 2.075195, 9.887695
670493, 0.123047, 0.826416, -0.727173, 47.607437, 13.671879, 8.300781
670513, 0.139038, 0.840942, -0.702393, 43.395996, 12.939457, 6.774904
670533, 0.169312, 0.769165, -0.690552, 41.870117, 5.554201, 5.798342
670553, 0.204834, 0.636963, -0.732666, 30.944832, -4.028320, 0.244141
670573, 0.154785, 0.628906, -0.778320, 16.784668, -7.812502, 1.342773
670593, 0.098755, 0.645020, -0.769409, 0.915528, -9.094238, 8.728027
670613, 0.104370, 0.654541, -0.669189, -9.704590, -3.295899, 13.549809
670633, 0.150513, 0.668457, -0.569824, -11.474613, 7.141115, 15.380863
670653, 0.173340, 0.724487, -0.566284, -7.995607, 20.996094, 16.601563
670673, 0.203247, 0.780640, -0.627441, -6.408693, 30.700691, 19.165039
670693, 0.256226, 0.816528, -0.666504, -7.141115, 33.325195, 20.996094
670713, 0.311279, 0.825317, -0.639526, -6.591799, 25.512703, 19.226074
670733, 0.339722, 0.771240, -0.608276, -0.854492, 3.295899, 9.643555
670753, 0.315796, 0.729492, -0.631104, -1.586915, -7.507326, 3.112794
670773, 0.257690, 0.716797, -0.642212, -6.164553, -10.498047, 0.854492
670793, 0.216431, 0.723511, -0.628052, -10.803223, -5.004883, 2.502441
670813, 0.211548, 0.754272, -0.597656, -11.718754, 4.394531, 6.713869
670833, 0.234741, 0.765503, -0.583618, -10.009766, 12.390141, 10.986328
670853, 0.274780, 0.781738, -0.589844, -7.995607, 15.991215, 11.962894
670873, 0.317261, 0.786377, -0.589600, -6.286623, 13.366703, 9.155273
670893, 0.338379, 0.791870, -0.592163, -5.371094, 7.080080, 4.943848
670913, 0.334229, 0.793213, -0.582886, -3.784181, -1.098633, 0.305176
670933, 0.298828, 0.770752, -0.572021, -0.366211, -8.911133, -4.943848
670953, 0.275146, 0.767090, -0.575073, 0.732422, -7.873537, -6.042482
670973, 0.258301, 0.767700, -0.583130, 1.220703, -3.723145, -4.333496
670993, 0.260376, 0.763916, -0.594971, 1.403809, 0.122070, -1.831055
671013, 0.276855, 0.764648, -0.612061, 0.122070, 2.380371, -2.075195
671033, 0.282349, 0.772583, -0.613159, -0.732422, 2.868653, -3.540040
671053, 0.298462, 0.771484, -0.593506, -0.610352, -2.441406, -3.906251
671073, 0.298584, 0.767700, -0.588013, -0.122070, -9.094238, -5.126953
671093, 0.286377, 0.768921, -0.586792, -0.854492, -10.375977, -6.835939
671113, 0.251831, 0.794312, -0.572021, 1.708985, -5.859377, -6.225588
671133, 0.252197, 0.789185, -0.576172, 4.211426, -4.638672, -3.723145
671153, 0.261108, 0.782593, -0.591553, 5.310059, -4.516602, -1.831055
671173, 0.269287, 0.786621, -0.598999, 5.432129, -6.225588, -2.563477
671193, 0.263672, 0.781006, -0.598389, 5.737307, -7.629396, -4.638672
671213, 0.259033, 0.773315, -0.594360, 6.286623, -7.873537, -7.019045
671233, 0.240234, 0.779053, -0.604004, 7.873537, -7.995607, -8.422852
671253, 0.219971, 0.774170, -0.614746, 8.666992, -7.873537, -7.629396
671273, 0.217896, 0.761841, -0.625977, 8.483887, -6.469728, -5.859377
671293, 0.213745, 0.751221, -0.628052, 6.774904, -3.417970, -5.126953
671313, 0.218628, 0.741821, -0.631714, 4.211426, -0.366211, -2.868653
671333, 0.222534, 0.763184, -0.637329, 2.380371, -0.549316, -0.793457
671353, 0.221924, 0.783691, -0.627563, 2.563477, -0.244141, 0.488281
671373, 0.238525, 0.768066, -0.613403, 4.028320, 0.244141, -0.488281
671393, 0.250488, 0.751953, -0.625000, 4.577637, -1.770020, -2.746582
671413, 0.230713, 0.750244, -0.645752, 2.380371, -4.516602, -3.417970
671433, 0.207642, 0.762207, -0.643433, 0.122070, -5.981447, -2.319336
671453, 0.200928, 0.769287, -0.624878, 0.000000, -4.333496, -0.488281
671473, 0.213379, 0.756592, -0.614502, 1.403809, -1.464844, -0.427246
671493, 0.218384, 0.759888, -0.634399, 0.427246, 3.234864, -1.220703
671513, 0.221680, 0.764648, -0.630615, -0.305176, 3.295899, -0.671387
671533, 0.224854, 0.759888, -0.627930, -0.305176, 1.708985, -0.244141
671553, 0.222290, 0.757324, -0.633789, -0.915528, 2.014160, -0.793457
671573, 0.216919, 0.760132, -0.632324, -1.647950, 3.540040, -0.427246
671593, 0.218506, 0.763184, -0.627441, -2.075195, 4.028320, 0.976563
671613, 0.223022, 0.761597, -0.625000, -2.563477, 3.784181, 2.197266
671633, 0.236816, 0.761353, -0.619629, -3.112794, 3.845216, 2.014160
671653, 0.243652, 0.765503, -0.616333, -3.173829, 4.089355, 0.976563
671673, 0.246582, 0.767090, -0.610718, -2.746582, 2.807618, 0.427246
671693, 0.245605, 0.776978, -0.615112, -2.258301, 0.976563, 1.037598
671713, 0.251465, 0.766479, -0.607544, -1.770020, 0.305176, 1.281738
671733, 0.250732, 0.762817, -0.610596, -1.525879, 0.183106, -0.183106
671753, 0.239258, 0.769287, -0.615845, -1.220703, 0.915528, -1.464844
671773, 0.234863, 0.769165, -0.614990, -1.281738, 1.525879, -0.976563
671793, 0.237915, 0.765747, -0.610840, -1.525879, 2.319336, -0.305176
671813, 0.246094, 0.766479, -0.607300, -1.892090, 2.685547, -0.366211
671833, 0.251953, 0.760254, -0.602051, -2.258301, 1.220703, -0.732422
671853, 0.237427, 0.773926, -0.617065, -3.356935, -0.305176, -0.305176
671873, 0.225952, 0.786987, -0.603394, -2.136230, 0.549316, 0.854492
671893, 0.231567, 0.767334, -0.606689, -0.366211, 0.732422, 1.342773
671913, 0.229980, 0.753540, -0.635254, -2.441406, 0.915528, 0.793457
671933, 0.222168, 0.764648, -0.632324, -5.737307, 1.281738, 1.098633
671953, 0.216797, 0.774780, -0.604980, -6.042482, 1.525879, 2.319336
671973, 0.215576, 0.770264, -0.603638, -5.249023, 3.051759, 3.723145
671993, 0.223389, 0.760986, -0.611938, -6.286623, 6.042482, 4.760742
672013, 0.229858, 0.763428, -0.617554, -8.850098, 8.300781, 5.859377
672033, 0.244873, 0.765259, -0.602905, -11.230473, 8.789063, 7.873537
672053, 0.262085, 0.774902, -0.583984, -12.146000, 8.422852, 8.850098
672073, 0.284180, 0.787842, -0.564941, -10.925293, 7.934572, 7.873537
672093, 0.296143, 0.799683, -0.570435, -9.277344, 7.568361, 5.737307
672113, 0.298340, 0.798096, -0.564575, -7.934572, 6.958010, 4.150391
672133, 0.313965, 0.801270, -0.559082, -7.141115, 3.417970, 3.845216
672153, 0.313477, 0.792114, -0.546509, -5.676271, 0.488281, 3.417970
672173, 0.328735, 0.784424, -0.551514, -5.126953, -2.624512, 1.586915
672193, 0.325684, 0.794312, -0.563354, -4.455566, -4.821777, -0.061035
672213, 0.312134, 0.796143, -0.569824, -4.089355, -9.155273, -1.220703
672233, 0.298828, 0.791870, -0.560913, -3.601075, -14.709476, -2.136230
672253, 0.256836, 0.802124, -0.543457, -2.563477, -13.671879, -3.051759
672273, 0.225830, 0.816895, -0.545166, -1.098633, -9.643555, -1.342773
672293, 0.217896, 0.810303, -0.549072, 0.427246, -4.394531, 0.793457
672313, 0.234253, 0.801025, -0.562866, 0.000000, 0.000000, 2.136230
672333, 0.250854, 0.797974, -0.568115, -0.976563, 1.953125, 2.746582
672353, 0.262085, 0.794556, -0.563843, -1.464844, 1.831055, 3.601075
672373, 0.266846, 0.799438, -0.570557, -1.708985, 0.244141, 3.723145
672393, 0.257080, 0.805542, -0.578857, -1.892090, 0.122070, 3.479005
672413, 0.251709, 0.789185, -0.570557, -2.258301, 0.305176, 4.272461
672433, 0.260010, 0.771484, -0.564819, -3.173829, 2.014160, 6.225588
672453, 0.271118, 0.772217, -0.566284, -5.798342, 6.225588, 7.568361
672473, 0.292847, 0.794922, -0.551392, -5.981447, 9.094238, 8.605957
672493, 0.312744, 0.812256, -0.537109, -3.967286, 7.568361, 9.155273
672513, 0.325195, 0.807861, -0.536865, -1.586915, 4.699707, 8.056641
672533, 0.336670, 0.798096, -0.540039, -0.671387, 1.831055, 5.615236
672553, 0.328125, 0.803101, -0.546997, -0.610352, -2.136230, 2.929688
672573, 0.303101, 0.800293, -0.557861, -0.915528, -5.065918, 0.732422
672593, 0.284180, 0.799194, -0.552856, -1.586915, -6.164553, 0.671387
672613, 0.271118, 0.798706, -0.546143, -1.586915, -5.004883, 2.075195
672633, 0.276489, 0.786255, -0.540283, -0.366211, 0.671387, 3.601075
672653, 0.295532, 0.774780, -0.536743, -0.488281, 2.990724, 4.394531
672673, 0.322876, 0.780762, -0.535767, -0.793457, 3.967286, 4.516602
672693, 0.339355, 0.805298, -0.541138, 0.000000, 2.685547, 3.540040
672713, 0.338257, 0.818604, -0.556030, 1.342773, -1.831055, 1.953125
672733, 0.326538, 0.803711, -0.566772, 1.586915, -6.958010, 0.488281
672753, 0.303589, 0.787598, -0.554688, 0.854492, -10.559082, -0.122070
672773, 0.282349, 0.767944, -0.534546, 0.732422, -10.498047, -0.427246
672793, 0.269409, 0.769775, -0.545288, 1.098633, -6.774904, -0.122070
672813, 0.278076, 0.766968, -0.565674, -3.601075, -1.525879, 4.394531
672833, 0.307007, 0.814819, -0.547607, -5.737307, -2.990724, 8.789063
672853, 0.340088, 0.821533, -0.522217, -4.516602, -3.906251, 9.521484
672873, 0.374146, 0.836304, -0.522705, -2.197266, -4.699707, 4.699707
672893, 0.392090, 0.860107, -0.526367, 0.183106, -7.324221, -2.258301
672913, 0.398926, 0.833130, -0.513794, 1.647950, -13.305668, -7.019045
672933, 0.422607, 0.812134, -0.531616, -0.305176, -24.841316, -18.432617
672953, 0.389282, 0.796265, -0.570923, -3.112794, -31.860359, -33.752441
672973, 0.311646, 0.798462, -0.583374, -4.821777, -37.536621, -42.724609
672993, 0.216919, 0.795410, -0.592285, -6.164553, -42.053223, -46.630875
673013, 0.078491, 0.713257, -0.648071, -16.967773, -31.188972, -43.457031
673033, 0.029663, 0.730225, -0.638916, -28.564461, -10.925293, -36.499023
673053, 0.017212, 0.764404, -0.566650, -36.376953, 10.559082, -28.625496
673073, 0.008911, 0.869263, -0.502075, -36.621094, 28.015144, -18.554688
673093, 0.043823, 0.937134, -0.439209, -22.583015, 36.743164, -7.873537
673113, 0.157349, 0.880005, -0.423218, -10.681152, 44.799820, -7.202150
673133, 0.245239, 0.835571, -0.438477, -2.014160, 50.781265, -16.479492
673153, 0.249512, 0.813232, -0.447876, 4.516602, 48.767105, -25.085457
673173, 0.222900, 0.853760, -0.474854, 8.361816, 45.043961, -23.803719
673193, 0.192993, 0.867432, -0.487915, 7.507326, 40.344238, -5.554201
673213, 0.240601, 0.812866, -0.498657, 2.868653, 47.485367, 0.244141
673233, 0.286011, 0.841309, -0.512085, -0.976563, 55.358902, 2.441406
673253, 0.319092, 0.886719, -0.499512, -1.281738, 57.617203, 4.272461
673273, 0.361816, 0.899414, -0.466919, 2.258301, 48.889175, 4.821777
673293, 0.385864, 0.834229, -0.459106, 5.126953, 35.095215, 2.990724
673313, 0.366455, 0.833496, -0.497437, 4.150391, 33.203125, -2.380371
673333, 0.272217, 0.855591, -0.526123, -0.061035, 18.188477, -1.342773
673353, 0.216187, 0.880615, -0.515869, -1.037598, 14.770512, 2.258301
673373, 0.189087, 0.890381, -0.476196, 1.831055, 16.479492, 3.723145
673393, 0.177368, 0.840088, -0.438843, 8.972168, 20.019531, 5.126953
673413, 0.209839, 0.809204, -0.437012, 12.756351, 13.610844, 3.234864
673433, 0.244995, 0.782471, -0.465332, 13.061527, 0.366211, -4.577637
673453, 0.255127, 0.787231, -0.475464, 11.535648, -17.456055, -11.779789
673473, 0.235840, 0.770020, -0.443237, 10.620117, -39.855957, -13.305668
673493, 0.195679, 0.790771, -0.432373, 9.094238, -59.753433, -4.272461
673513, 0.139160, 0.858032, -0.469849, 6.286623, -69.763184, 11.169437
673533, 0.108765, 0.911011, -0.498047, 6.286623, -61.340347, 28.747566
673553, 0.149292, 0.959717, -0.556274, 8.422852, -32.348633, 37.048340
673573, 0.309448, 0.955200, -0.625732, 9.521484, 15.869144, 25.939949
673593, 0.426636, 0.856201, -0.606201, 2.319336, 19.592285, 10.498047
673613, 0.452515, 0.774292, -0.561035, -4.150391, -5.249023, -2.258301
673633, 0.366455, 0.748901, -0.512939, -9.277344, -34.118652, -11.108402
673653, 0.228882, 0.775513, -0.454712, -10.375977, -45.837418, -11.779789
673673, 0.132324, 0.821777, -0.417358, -5.798342, -35.217285, -9.765625
673693, 0.106079, 0.851685, -0.426514, 3.723145, -12.390141, -4.028320
673713, 0.140381, 0.854492, -0.479004, 10.375977, 8.850098, 5.310059
673733, 0.189575, 0.848633, -0.552124, 10.620117, 20.507813, 12.451176
673753, 0.245972, 0.866943, -0.587769, 7.934572, 24.597176, 15.258793
673773, 0.301880, 0.860718, -0.528442, 6.896975, 25.634773, 13.183598
673793, 0.286011, 0.874512, -0.475830, 11.901859, 31.799324, 8.117676
673813, 0.267456, 0.794434, -0.467285, 19.042969, 44.921890, 3.356935
673833, 0.282593, 0.743530, -0.518799, 21.972656, 60.974136, 1.281738
673853, 0.298706, 0.697754, -0.591919, 15.136723, 69.030762, -2.746582
673873, 0.319702, 0.722534, -0.628906, 1.892090, 59.021011, 3.051759
673893, 0.333984, 0.839111, -0.585815, -9.704590, 34.912109, 8.666992
673913, 0.406616, 0.804443, -0.487061, -12.390141, 14.953617, 7.446291
673933, 0.479126, 0.793457, -0.465210, -8.178711, -3.967286, -2.014160
673953, 0.425781, 0.810669, -0.515503, -9.277344, -32.897949, -18.798828
673973, 0.386719, 0.808105, -0.469849, -12.023930, -48.461929, -15.930180
673993, 0.374390, 0.792358, -0.422363, -10.803223, -57.556168, -11.474613
674013, 0.328979, 0.815552, -0.429565, -4.699707, -55.847183, -11.413578
674033, 0.279175, 0.828369, -0.470215, 4.028320, -50.231949, -14.221195
674053, 0.240845, 0.828125, -0.534546, 10.742188, -42.968750, -18.249512
674073, 0.182007, 0.812500, -0.608398, 9.765625, -37.048340, -17.944336
674093, 0.102051, 0.824097, -0.655762, 1.647950, -28.076180, -11.230473
674113, 0.059204, 0.825684, -0.624512, -4.943848, -15.014652, -2.075195
674133, 0.061768, 0.817017, -0.544678, -7.324221, 2.990724, 8.605957
674153, 0.135498, 0.818970, -0.477051, -4.028320, 33.569336, 25.573738
674173, 0.212158, 0.819092, -0.470093, -1.892090, 52.001968, 32.897949
674193, 0.305298, 0.804443, -0.458618, 1.098633, 66.223145, 35.034180
674213, 0.392578, 0.811157, -0.460938, 3.234864, 70.007324, 28.259285
674233, 0.459229, 0.810181, -0.493164, 5.615236, 62.683121, 14.831547
674253, 0.483887, 0.834595, -0.537231, 5.187988, 47.363297, 2.685547
674273, 0.421631, 0.847656, -0.537109, 2.319336, 18.615723, -0.793457
674293, 0.337524, 0.826050, -0.527222, 0.000000, -9.765625, -2.075195
674313, 0.277100, 0.809204, -0.551758, -4.150391, -23.986824, -4.638672
674333, 0.244507, 0.824585, -0.542358, -11.352543, -29.724129, -7.690432
674353, 0.249512, 0.848145, -0.522827, -13.671879, -41.687012, -1.892090
674373, 0.288452, 0.818237, -0.507202, -13.366703, -53.344742, -2.746582
674393, 0.319580, 0.801025, -0.504761, -13.305668, -62.744156, -7.873537
674413, 0.324585, 0.810913, -0.505493, -12.634281, -61.035172, -14.587406
674433, 0.323730, 0.816528, -0.495239, -10.925293, -53.833023, -19.714355
674453, 0.312378, 0.777954, -0.476929, -8.483887, -45.349136, -20.324707
674473, 0.285156, 0.763794, -0.512451, -11.413578, -35.034180, -18.066406
674493, 0.241821, 0.811279, -0.532837, -17.089844, -21.911621, -14.038090
674513, 0.230835, 0.863037, -0.484985, -19.775391, -12.023930, -11.840824
674533, 0.245361, 0.910522, -0.432495, -11.596684, -16.235352, -12.268070
674553, 0.252319, 0.899658, -0.441162, -5.310059, -27.404793, -17.028809
674573, 0.218140, 0.885132, -0.451416, -0.671387, -43.579102, -17.883301
674593, 0.154419, 0.892090, -0.474854, 1.464844, -49.987808, -15.319828
674613, 0.114990, 0.873413, -0.485962, -0.549316, -46.264664, -12.023930
674633, 0.095215, 0.871460, -0.476563, -0.610352, -30.822762, -8.422852
674653, 0.108276, 0.855103, -0.475464, 1.281738, -19.287109, -3.356935
674673, 0.150391, 0.860596, -0.504395, 2.441406, -8.789063, -3.356935
674693, 0.163940, 0.856201, -0.515991, 3.234864, -4.272461, -4.455566
674713, 0.180176, 0.838867, -0.525757, 5.615236, -6.774904, -5.554201
674733, 0.170776, 0.823364, -0.545288, 3.967286, -7.568361, -6.835939
674753, 0.166626, 0.829834, -0.542358, 1.281738, -10.925293, -6.774904
674773, 0.140991, 0.840942, -0.530518, -0.061035, -14.892582, -6.835939
674793, 0.107910, 0.867310, -0.521362, -2.136230, -15.686039, -6.530764
674813, 0.099731, 0.880127, -0.502075, -2.197266, -12.146000, -4.943848
674833, 0.099243, 0.879761, -0.486450, -0.427246, -9.704590, -2.197266
674853, 0.089722, 0.889771, -0.490845, 0.610352, -6.835939, 0.061035
674873, 0.098022, 0.892456, -0.491577, 2.075195, -5.493164, 1.586915
674893, 0.104980, 0.885864, -0.492676, 4.089355, -4.272461, 1.892090
674913, 0.120850, 0.870361, -0.507080, 6.042482, -1.831055, 2.258301
674933, 0.126831, 0.852173, -0.521606, 4.821777, -0.061035, 2.014160
674953, 0.117065, 0.848755, -0.523682, 3.906251, 0.183106, 3.723145
674973, 0.120728, 0.841919, -0.524658, 3.295899, -0.854492, 6.225588
674993, 0.117310, 0.852295, -0.529175, 3.234864, -2.502441, 8.544922
675013, 0.107788, 0.850220, -0.532471, 2.380371, -2.990724, 9.704590
675033, 0.120972, 0.846313, -0.523438, 1.342773, -2.319336, 12.146000
675053, 0.127930, 0.863770, -0.520386, 1.403809, -1.403809, 14.221195
675073, 0.136230, 0.869751, -0.510498, 3.295899, -1.037598, 15.014652
675093, 0.164673, 0.871826, -0.528320, 5.737307, -3.540040, 13.854984
675113, 0.167358, 0.861938, -0.541260, 5.310059, -7.141115, 12.390141
675133, 0.152710, 0.857544, -0.538940, 4.333496, -8.666992, 11.718754
675153, 0.138184, 0.841309, -0.528076, 3.967286, -6.958010, 12.573246
675173, 0.129883, 0.825073, -0.522827, 4.272461, -3.417970, 15.441898
675193, 0.131836, 0.837524, -0.534790, 2.929688, 1.831055, 17.028809
675213, 0.156006, 0.830566, -0.540527, 2.380371, 6.469728, 18.615723
675233, 0.193604, 0.821655, -0.553833, -0.122070, 7.629396, 17.944336
675253, 0.197876, 0.840088, -0.563110, -1.770020, 5.187988, 14.282230
675273, 0.189087, 0.846069, -0.546875, -2.563477, 2.197266, 11.840824
675293, 0.177002, 0.821167, -0.536011, -3.906251, 0.610352, 13.000492
675313, 0.162109, 0.839478, -0.532104, -6.164553, 5.859377, 15.380863
675333, 0.195068, 0.841064, -0.504028, -6.896975, 8.972168, 18.676758
675353, 0.243042, 0.842285, -0.503052, -4.821777, 7.995607, 18.798828
675373, 0.262573, 0.840332, -0.523804, -4.882813, 5.432129, 16.418457
675393, 0.271729, 0.836670, -0.522461, -5.615236, 0.793457, 13.366703
675413, 0.277588, 0.828491, -0.515259, -6.225588, -3.295899, 10.925293
675433, 0.273804, 0.831055, -0.509766, -6.347658, -6.042482, 7.568361
675453, 0.257568, 0.831177, -0.517212, -7.690432, -6.530764, 3.662110
675473, 0.237427, 0.844238, -0.504517, -8.056641, -7.385256, 2.136230
675493, 0.234131, 0.842773, -0.489990, -6.530764, -8.056641, 2.624512
675513, 0.225098, 0.845215, -0.492920, -4.699707, -7.507326, 3.723145
675533, 0.219849, 0.833984, -0.510498, -5.065918, -5.371094, 6.103518
675553, 0.240356, 0.829468, -0.502319, -7.263186, -1.831055, 8.483887
675573, 0.273315, 0.849976, -0.483276, -5.432129, -0.610352, 7.934572
675593, 0.282471, 0.875610, -0.493652, -1.525879, -2.929688, 3.967286
675613, 0.256104, 0.870483, -0.507202, 1.098633, -8.728027, 2.380371
675633, 0.244141, 0.842285, -0.511841, 3.051759, -11.840824, 0.610352
675653, 0.218872, 0.811768, -0.512939, 2.075195, -9.643555, -2.197266
675673, 0.208008, 0.789917, -0.505249, -0.915528, -4.211426, -5.249023
675693, 0.218628, 0.805786, -0.506592, -1.525879, -4.577637, -3.906251
675713, 0.232178, 0.833740, -0.514648, -1.281738, -7.568361, -1.770020
675733, 0.224365, 0.865234, -0.526733, -2.014160, -7.873537, -1.586915
675753, 0.241699, 0.872192, -0.501099, -0.854492, -6.835939, -2.868653
675773, 0.240356, 0.862183, -0.494385, 0.549316, -2.319336, -4.638672
675793, 0.245728, 0.844849, -0.505005, 1.098633, -8.300781, -2.868653
675813, 0.231812, 0.844727, -0.502319, 0.000000, -9.887695, -2.136230
675833, 0.220947, 0.855835, -0.491821, -0.183106, -9.338379, -2.380371
675853, 0.199585, 0.853027, -0.491943, 1.342773, -2.197266, -3.417970
675873, 0.202271, 0.838745, -0.505371, 1.220703, -0.122070, -1.647950
675893, 0.203857, 0.841064, -0.497070, 1.159668, 1.464844, 0.061035
675913, 0.190430, 0.827881, -0.498535, 2.136230, 2.746582, 2.563477
675933, 0.188232, 0.833740, -0.513306, 1.403809, 6.469728, 3.601075
675953, 0.183838, 0.837402, -0.514526, -0.183106, 11.657719, 4.333496
675973, 0.216309, 0.837646, -0.517456, -1.586915, 16.357422, 5.981447
675993, 0.262329, 0.854736, -0.503540, -1.831055, 15.319828, 5.371094
676013, 0.278564, 0.862915, -0.493652, -0.305176, 11.962894, 1.770020
676033, 0.283569, 0.864624, -0.494507, 0.915528, 6.652834, -2.075195
676053, 0.274780, 0.857422, -0.499634, 1.037598, 1.220703, -6.835939
676073, 0.274292, 0.850464, -0.485718, 1.586915, -3.540040, -8.850098
676093, 0.263672, 0.842041, -0.482422, 2.441406, -8.056641, -9.826660
676113, 0.235962, 0.856689, -0.490967, 5.004883, -10.253906, -10.681152
676133, 0.223999, 0.847168, -0.494751, 7.080080, -10.192871, -12.207035
676153, 0.220825, 0.838745, -0.513428, 7.507326, -10.803223, -12.756351
676173, 0.212158, 0.839600, -0.536499, 5.126953, -14.648441, -15.075687
676193, 0.193848, 0.831055, -0.506348, 3.906251, -12.146000, -15.075687
676213, 0.179565, 0.840942, -0.499878, 5.004883, -9.033203, -10.925293
676233, 0.172485, 0.850830, -0.527954, 6.225588, -3.967286, -6.042482
676253, 0.180298, 0.852783, -0.537476, 5.432129, -2.441406, -6.164553
676273, 0.193481, 0.854370, -0.531860, 4.516602, -3.784181, -7.507326
676293, 0.185547, 0.842163, -0.525757, 4.089355, -4.394531, -8.666992
676313, 0.183960, 0.835205, -0.516357, 4.150391, -2.136230, -8.789063
676333, 0.201904, 0.827026, -0.504883, 5.493164, -0.671387, -8.422852
679793, 0.181763, 0.878784, -0.459351, 0.671387, -1.159668, 0.061035
679813, 0.179810, 0.880737, -0.446167, 1.403809, 0.915528, 1.831055
679833, 0.201416, 0.877197, -0.450562, 1.464844, 1.770020, 1.892090
679853, 0.215820, 0.883301, -0.441284, 2.441406, 2.624512, 1.525879
679873, 0.235962, 0.878296, -0.454468, 3.601075, -0.305176, -0.183106
679893, 0.188965, 0.875366, -0.449097, 3.784181, -2.014160, -1.098633
679913, 0.153442, 0.877319, -0.465820, 4.333496, -1.586915, 2.990724
679933, 0.165161, 0.870972, -0.470215, 3.356935, 1.281738, 5.187988
679953, 0.184082, 0.870972, -0.463989, 3.173829, 4.150391, 7.812502
679973, 0.230225, 0.875244, -0.469116, 2.563477, 2.624512, 7.690432
679993, 0.226685, 0.879517, -0.423706, 4.089355, 4.577637, 5.187988
680013, 0.213867, 0.872559, -0.448364, 6.713869, 3.479005, 5.310059
680033, 0.222046, 0.864136, -0.480835, 6.530764, 0.061035, 4.882813
680053, 0.216064, 0.863403, -0.486328, 4.821777, 1.708985, 5.432129
680073, 0.221924, 0.854248, -0.489258, 3.417970, 3.173829, 5.554201
680093, 0.234863, 0.865601, -0.474487, 2.441406, 3.479005, 5.371094
680113, 0.239014, 0.864990, -0.464844, 2.685547, 3.417970, 3.601075
680133, 0.220581, 0.871460, -0.440430, 3.845216, 3.479005, 3.662110
680153, 0.263306, 0.910645, -0.516113, 2.075195, 2.990724, 1.098633
680173, 0.269409, 0.884888, -0.418945, -10.131836, -2.380371, -10.803223
680193, 0.166626, 0.928101, -0.389160, -1.647950, -6.164553, -10.986328
680213, 0.142578, 0.940186, -0.368164, -3.845216, -0.244141, -13.366703
680233, 0.129883, 0.903564, -0.432861, -6.958010, 4.577637, -13.366703
680253, 0.147461, 0.947021, -0.410767, -11.657719, 3.601075, -14.892582
680273, 0.110840, 0.942383, -0.379272, -15.197758, 4.699707, -16.967773
680293, 0.076050, 0.918091, -0.357910, -14.587406, 11.413578, -15.563969
680313, 0.099731, 0.916748, -0.328125, -9.094238, 13.305668, -7.690432
680333, 0.119873, 0.944458, -0.316284, -2.014160, 15.014652, -3.662110
680353, 0.121094, 0.939087, -0.339478, 3.845216, 15.014652, -2.380371
680373, 0.137451, 0.928955, -0.399414, 5.004883, 16.418457, -0.488281
680393, 0.200439, 0.931763, -0.453491, -1.525879, 14.953617, -3.906251
680413, 0.224976, 0.895142, -0.413696, -12.512211, 10.009766, -9.338379
680433, 0.222168, 0.899902, -0.306519, -2.868653, 8.544922, -3.417970
680453, 0.318970, 0.897461, -0.493164, -5.798342, 11.657719, -10.375977
680473, 0.286621, 0.868164, -0.418335, -11.474613, 1.953125, -13.488773
680493, 0.302979, 0.829712, -0.438354, -10.192871, -8.300781, -16.418457
680513, 0.206665, 0.863403, -0.372437, 2.319336, -13.488773, -7.751467
680533, 0.188599, 0.828735, -0.459473, 18.737793, -12.451176, 6.286623
680553, 0.204834, 0.770142, -0.556519, 23.742683, -11.413578, 19.409180
680573, 0.204712, 0.776001, -0.556641, 29.663094, -9.887695, 29.541023
680593, 0.192505, 0.744141, -0.666870, 37.658691, 5.187988, 41.198730
680613, 0.276733, 0.753174, -0.741211, 25.573738, 20.019531, 42.053223
680633, 0.419189, 0.766724, -0.771118, 1.586915, 17.761230, 33.874512
680653, 0.502930, 0.811523, -0.626465, -17.517090, 4.333496, 18.432617
680673, 0.488647, 0.836426, -0.521973, -24.963387, -15.136723, 2.868653
680693, 0.400513, 0.859619, -0.444824, -27.465828, -24.353035, -10.620117
680713, 0.310913, 0.892578, -0.338379, -22.033691, -29.846199, -16.540527
680733, 0.220459, 0.905029, -0.312134, -11.169437, -25.146492, -19.226074
680753, 0.138428, 0.908936, -0.315063, -0.183106, -17.761230, -15.930180
680773, 0.057861, 0.899048, -0.362183, 9.033203, -7.080080, -7.263186
680793, 0.083740, 0.872314, -0.449219, 14.343266, 6.286623, 12.268070
680813, 0.156006, 0.860718, -0.476318, 13.122562, 12.329105, 19.653320
680833, 0.245483, 0.852783, -0.490967, 11.230473, 13.427738, 22.583015
680853, 0.332520, 0.846313, -0.504395, 7.812502, 9.826660, 19.226074
680873, 0.350586, 0.845215, -0.503296, 4.333496, 3.601075, 12.634281
680893, 0.339233, 0.846069, -0.501099, 1.586915, -0.061035, 6.652834
680913, 0.333496, 0.843872, -0.504883, -2.075195, -3.051759, 0.915528
680933, 0.300049, 0.850586, -0.485962, -4.516602, -5.737307, -2.990724
680953, 0.248779, 0.858887, -0.459229, -5.432129, -5.798342, -3.967286
680973, 0.229980, 0.863281, -0.444092, -3.479005, 1.464844, -1.586915
680993, 0.261108, 0.866577, -0.442139, -1.953125, 4.333496, -1.037598
681013, 0.314941, 0.864502, -0.445190, -0.610352, 2.380371, -3.234864
681033, 0.305664, 0.859009, -0.458984, -0.061035, -4.272461, -7.202150
681053, 0.221802, 0.848267, -0.503784, -2.441406, -6.652834, -6.896975
681073, 0.147827, 0.848999, -0.509888, -6.530764, -2.807618, -1.220703
681093, 0.182495, 0.846924, -0.515869, -11.718754, 5.249023, 5.554201
681113, 0.268066, 0.857788, -0.477417, -15.686039, 10.131836, 6.347658
681133, 0.321167, 0.870605, -0.420654, -15.502934, 7.934572, 2.807618
681153, 0.323486, 0.875732, -0.406128, -13.305668, 2.746582, -1.525879
681173, 0.279297, 0.889038, -0.380249, -7.934572, -2.136230, -5.615236
681193, 0.264160, 0.878906, -0.404785, -4.760742, -2.807618, -6.164553
681213, 0.249390, 0.882080, -0.405518, -3.112794, -4.882813, -5.676271
681233, 0.243286, 0.877930, -0.427612, -2.319336, -5.859377, -4.455566
681253, 0.220459, 0.880859, -0.413330, -2.258301, -5.310059, -3.112794
681273, 0.209961, 0.884155, -0.411011, -0.488281, -3.356935, 0.000000
681293, 0.219604, 0.879883, -0.422974, -0.244141, -0.305176, 2.136230
681313, 0.232788, 0.880493, -0.414429, 0.610352, 0.610352, 4.150391
681333, 0.255859, 0.880249, -0.420532, 1.342773, -0.061035, 4.882813
681353, 0.279419, 0.880493, -0.413208, 1.770020, -2.868653, 3.601075
681373, 0.274780, 0.882690, -0.403564, 3.601075, -3.967286, 2.075195
681393, 0.268677, 0.879517, -0.419678, 5.187988, -3.173829, 0.854492
