timestamp,ax,ay,az,gx,gy,gz
2342798, -0.023071, 0.792725, -0.582153, 6.896975, 33.569336, 4.943848
2342818, -0.043213, 0.885864, -0.602173, 14.587406, 48.278824, 1.953125
2342838, -0.021362, 0.792114, -0.564697, 36.621094, 52.429214, 3.723145
2342858, -0.161865, 0.573853, -0.702759, 18.981934, 45.715347, -7.324221
2342878, -0.193848, 0.740112, -0.681030, -10.131836, 49.987808, 1.708985
2342898, -0.030762, 1.068604, -0.590332, -19.531250, 39.184570, 12.756351
2343018, 0.051392, 0.813843, -0.634644, 1.464844, 19.531250, -1.647950
2343038, 0.088257, 0.806641, -0.663452, 2.624512, 12.146000, -7.263186
2343058, 0.018311, 0.784058, -0.651733, -2.136230, -12.390141, -11.291508
2343078, -0.054443, 0.773071, -0.675293, -3.112794, -22.888191, -7.385256
2343298, -0.064209, 0.793213, -0.634521, 1.037598, -8.178711, -5.249023
2343318, -0.104858, 0.792358, -0.642822, 0.854492, -6.591799, -1.708985
2343338, -0.101318, 0.795410, -0.630615, 0.000000, -4.455566, 2.258301
2343358, -0.035645, 0.799927, -0.614746, 1.953125, -1.708985, 2.990724
2343378, -0.021118, 0.792847, -0.639771, 2.441406, -2.197266, 0.488281
2343398, -0.043945, 0.790039, -0.654541, 0.976563, -0.732422, -1.892090
2343418, -0.060791, 0.790039, -0.642822, -0.427246, -0.915528, -1.953125
2343438, -0.092285, 0.798340, -0.616455, -0.122070, -2.014160, 0.610352
2343458, -0.051392, 0.796753, -0.621948, 1.281738, -0.122070, 1.892090
2343478, -0.008545, 0.792847, -0.639404, 1.220703, -0.427246, -0.854492
2343498, -0.026001, 0.788696, -0.650879, 0.061035, -4.882813, -3.417970
2343518, -0.081055, 0.793335, -0.632690, -0.671387, -5.798342, -2.929688
2343538, -0.110596, 0.799927, -0.609253, 1.342773, -1.464844, 1.525879
2343558, -0.057007, 0.796143, -0.626221, 2.868653, 2.563477, 2.258301
2343578, -0.026367, 0.788940, -0.650146, 1.831055, 0.854492, 0.671387
2343638, -0.064209, 0.795410, -0.631714, -0.549316, -1.586915, -0.244141
2343658, -0.040894, 0.796387, -0.626709, -0.183106, -2.380371, -0.915528
2343678, -0.064087, 0.794922, -0.628906, 0.244141, -1.831055, -1.708985
2343698, -0.072998, 0.792236, -0.635498, 0.183106, -2.319336, -0.732422
2343718, -0.078979, 0.796143, -0.621826, 0.732422, -1.159668, 0.915528
2343738, -0.043457, 0.794067, -0.631714, 0.793457, 0.366211, -0.671387
2343838, -0.038208, 0.790771, -0.643555, 0.061035, -2.868653, -0.366211
2343878, -0.066772, 0.791138, -0.644775, -1.037598, -4.028320, -1.220703
2343898, -0.084717, 0.799561, -0.609619, 0.183106, -2.685547, 0.122070
2343918, -0.065186, 0.796875, -0.622314, 1.464844, -0.915528, 0.122070
2344118, -0.083862, 0.795288, -0.626953, -1.281738, -5.249023, -2.746582
2344138, -0.094971, 0.794922, -0.629761, -0.549316, -2.441406, -1.281738
2344318, -0.063965, 0.793701, -0.636597, 0.305176, 0.549316, 0.610352
2344338, -0.054321, 0.795288, -0.628418, 0.488281, -0.549316, 0.183106
2344358, -0.059326, 0.793701, -0.632813, 0.427246, -1.342773, -0.793457
2344378, -0.080933, 0.794556, -0.631470, 0.427246, -0.915528, -0.671387
2344398, -0.084595, 0.795898, -0.625000, 0.488281, 0.549316, 0.488281
2344418, -0.059570, 0.794067, -0.631958, 0.427246, 0.122070, 0.549316
2344438, -0.054932, 0.793457, -0.636597, 0.610352, -0.305176, 0.122070
2344458, -0.054932, 0.793213, -0.635986, -0.122070, -2.014160, -1.098633
2344478, -0.092773, 0.796387, -0.620850, 0.183106, -0.732422, -0.549316
2344498, -0.064575, 0.794312, -0.633179, 0.549316, 0.244141, 0.732422
2344518, -0.062988, 0.796387, -0.625732, 0.854492, -0.244141, 0.549316
2344538, -0.062256, 0.793579, -0.631470, 0.732422, -0.610352, -0.366211
2344558, -0.073853, 0.792603, -0.635620, 0.915528, 0.915528, 0.244141
2344578, -0.049194, 0.791382, -0.638062, 0.000000, -1.098633, -0.305176
2344598, -0.060181, 0.795166, -0.627441, -0.061035, -1.647950, -1.281738
2344618, -0.078003, 0.795532, -0.625000, 0.427246, -1.403809, -1.220703
2344638, -0.083496, 0.793579, -0.635254, 0.549316, -1.342773, 0.061035
2344658, -0.065552, 0.791748, -0.638550, 0.183106, -0.427246, 0.793457
2344678, -0.038940, 0.791870, -0.643311, -1.342773, -3.356935, -1.525879
2345560, -0.077881, 0.800293, -0.614990, 0.732422, 0.610352, 0.793457
2345580, -0.054565, 0.795044, -0.630981, 1.037598, 1.037598, 0.183106
2345600, -0.059814, 0.793457, -0.641968, -0.183106, -1.525879, -0.854492
2345816, -0.018433, 0.788574, -0.657593, -0.854492, -2.014160, -0.915528
2345836, -0.073120, 0.797363, -0.623291, -1.586915, -4.821777, -1.892090
2345856, -0.101440, 0.800537, -0.607178, 0.061035, -0.915528, 0.366211
2345876, -0.065308, 0.796997, -0.624023, 1.586915, 2.319336, 1.953125
2345896, -0.017090, 0.789307, -0.652710, 0.183106, -2.197266, -0.244141
2346016, -0.092651, 0.794434, -0.627930, -0.793457, -3.723145, -1.403809
2346036, -0.122192, 0.802124, -0.607666, -0.183106, -0.732422, 1.403809
2346056, -0.033447, 0.797119, -0.627563, 1.831055, 3.784181, 1.525879
2346076, -0.029541, 0.793213, -0.641602, 1.037598, 0.244141, -1.342773
2346096, -0.088013, 0.793823, -0.631958, 0.366211, -1.037598, -1.770020
2346116, -0.089600, 0.796387, -0.625000, 0.976563, 2.136230, 0.671387
2346136, -0.048950, 0.795898, -0.629883, -0.122070, -0.915528, 0.061035
2346766, -0.082520, 0.796021, -0.628906, 0.671387, 1.708985, 0.671387
2346786, -0.032227, 0.793457, -0.633179, 1.037598, 1.037598, 0.061035
2346806, -0.063599, 0.793701, -0.627930, 0.305176, 1.098633, -1.220703
2346826, -0.055908, 0.793579, -0.631958, 0.427246, 3.051759, -0.366211
2346846, -0.060059, 0.796875, -0.624268, 0.549316, 1.037598, -0.854492
2346866, -0.088867, 0.798584, -0.612549, 1.708985, 2.685547, 0.061035
2346886, -0.044556, 0.790771, -0.634888, 2.746582, 5.981447, 0.061035
2346906, -0.016846, 0.791504, -0.642090, 1.831055, 4.089355, -2.441406
2346926, -0.035767, 0.793701, -0.642456, 0.915528, -0.671387, -4.516602
2346946, -0.082520, 0.792603, -0.645264, 1.159668, -4.333496, -3.173829
2346966, -0.063721, 0.783447, -0.663818, -1.220703, -3.784181, -1.953125
2346986, -0.014771, 0.777466, -0.655273, -4.272461, -3.906251, -3.417970
2347006, -0.049927, 0.797729, -0.619751, -6.652834, -10.986328, -8.178711
2347026, -0.093018, 0.796265, -0.622192, -6.286623, -10.559082, -8.239746
2347046, -0.187256, 0.811401, -0.570557, -3.234864, -5.004883, -2.807618
2347066, -0.158691, 0.811035, -0.576782, 1.159668, 1.831055, 3.723145
2347086, -0.070679, 0.804321, -0.605713, 3.906251, 4.821777, 5.676271
2347106, 0.003784, 0.788818, -0.648804, 3.479005, 3.723145, 1.647950
2347126, 0.034058, 0.786865, -0.667969, 1.037598, -3.845216, -5.004883
2347146, -0.035645, 0.785034, -0.667847, -3.234864, -10.925293, -9.948730
2347166, -0.146118, 0.797241, -0.618774, -3.967286, -11.840824, -7.690432
2347186, -0.182983, 0.805420, -0.589600, -1.159668, -1.342773, 1.159668
2347206, -0.050049, 0.801880, -0.608521, 1.586915, -0.305176, 2.929688
2347226, 0.017578, 0.791260, -0.653076, -0.305176, -5.554201, -3.051759
2347246, -0.019653, 0.786499, -0.667969, -3.051759, -11.230473, -9.216309
2347266, -0.097900, 0.793823, -0.641846, -6.225588, -15.197758, -10.986328
2347546, -0.137817, 0.799438, -0.608276, 4.394531, 3.051759, 2.319336
2347566, -0.102417, 0.794434, -0.629517, 3.967286, 7.995607, 5.187988
2347586, -0.061646, 0.791992, -0.642700, 3.051759, 7.019045, 4.028320
2347606, -0.040039, 0.791260, -0.643311, 1.403809, 2.807618, 0.854492
2347626, -0.089233, 0.787354, -0.651611, -0.122070, -5.371094, 0.000000
2347646, -0.103027, 0.791382, -0.643677, -2.563477, -5.676271, 0.915528
2347666, -0.099609, 0.804565, -0.596191, -1.953125, -4.089355, 0.976563
2347686, -0.088989, 0.803589, -0.602417, 0.488281, -3.845216, 0.183106
2347706, -0.114380, 0.798218, -0.615723, 1.403809, -3.417970, 0.488281
2347726, -0.125854, 0.800903, -0.613159, 1.953125, -0.915528, 1.953125
2347746, -0.124390, 0.797852, -0.616455, 2.746582, 2.136230, 3.234864
2347766, -0.073853, 0.792480, -0.634277, 3.417970, 5.615236, 3.662110
2347786, -0.034546, 0.783813, -0.670898, 1.281738, 2.258301, 0.793457
2347806, -0.048706, 0.788574, -0.657349, -2.380371, -3.662110, -2.441406
2347826, -0.078979, 0.796265, -0.625732, -3.295899, -6.347658, -3.967286
2347846, -0.099121, 0.801392, -0.606079, -2.258301, -7.385256, -4.333496
2347866, -0.156250, 0.800781, -0.605103, -0.793457, -7.202150, -1.953125
2347886, -0.150024, 0.793823, -0.626953, -0.305176, -1.953125, 2.380371
2347906, -0.065674, 0.795044, -0.636475, -1.281738, 0.732422, 1.953125
2347926, -0.054688, 0.802368, -0.616821, -1.831055, -1.220703, -1.831055
2347946, -0.102051, 0.802368, -0.612427, -0.305176, -1.403809, -4.821777
2347966, -0.186401, 0.794556, -0.625122, -0.366211, -2.685547, -0.244141
2347986, -0.141968, 0.795532, -0.630981, -0.976563, 1.403809, 5.249023
2348006, -0.062134, 0.797729, -0.629639, -2.197266, -0.061035, 4.455566
2348026, -0.059692, 0.803101, -0.613159, -1.953125, -0.366211, 1.342773
2348046, -0.057495, 0.802979, -0.614990, -1.647950, 0.610352, -2.502441
2348066, -0.144409, 0.804077, -0.598267, -0.793457, -4.577637, -2.136230
2348086, -0.219360, 0.804688, -0.596802, 1.037598, 1.831055, 5.676271
2348106, -0.128662, 0.798218, -0.621094, 1.831055, 8.239746, 10.437012
2348126, -0.054688, 0.801270, -0.616455, 1.464844, 11.657719, 9.155273
2348146, 0.120239, 0.791748, -0.669067, -0.915528, 3.784181, -5.065918
2348186, -0.253174, 0.803589, -0.593262, -3.479005, -19.775391, -5.981447
2348206, -0.221069, 0.807495, -0.584229, -1.831055, -9.460449, 3.417970
2348226, -0.160278, 0.813965, -0.569946, 1.220703, 5.554201, 7.568361
2348246, -0.025635, 0.807007, -0.600220, 4.150391, 12.390141, 5.432129
2348266, 0.068359, 0.796509, -0.655029, 2.746582, 7.507326, -4.272461
2348306, -0.176270, 0.792725, -0.636108, -4.516602, -19.653320, -12.146000
2348326, -0.270752, 0.798828, -0.588135, -4.211426, -11.596684, 5.432129
2348346, -0.185791, 0.814819, -0.567749, -1.403809, 3.173829, 12.573246
2348366, -0.080444, 0.816772, -0.574951, 1.831055, 10.070801, 12.390141
2348386, -0.027466, 0.808838, -0.605225, 3.784181, 7.446291, 8.605957
2348406, -0.016846, 0.798584, -0.642944, 2.075195, 1.281738, 3.723145
2348426, -0.061768, 0.798462, -0.636475, -0.305176, -3.784181, 0.244141
2348446, -0.129761, 0.804932, -0.609375, -0.488281, -4.394531, 1.098633
2348466, -0.100464, 0.812134, -0.592285, 0.610352, 0.244141, 2.746582
2348486, -0.073853, 0.805664, -0.615112, 1.342773, -2.136230, 2.136230
2348506, -0.090210, 0.806641, -0.608398, 1.586915, -2.502441, 1.464844
2348526, -0.075684, 0.799316, -0.621826, 1.586915, 0.976563, 0.061035
2348546, -0.112305, 0.801025, -0.622803, 0.671387, -1.281738, 0.915528
2348566, -0.116089, 0.803711, -0.619873, 0.061035, -1.770020, 3.417970
2348586, -0.101440, 0.804932, -0.611328, -0.061035, -1.281738, 4.882813
2348606, -0.079956, 0.808228, -0.602173, 0.793457, 0.122070, 4.638672
2348626, -0.064575, 0.806030, -0.612671, 1.342773, 1.708985, 2.746582
2348646, -0.055420, 0.803467, -0.619141, 1.098633, 0.732422, 0.549316
2348666, -0.063232, 0.802612, -0.625366, 0.488281, -0.976563, -1.525879
2348686, -0.089722, 0.807617, -0.604858, 0.244141, -1.281738, -1.892090
2348706, -0.088257, 0.806641, -0.604126, 2.258301, 2.136230, -1.281738
2348726, -0.061523, 0.800781, -0.631470, 1.892090, 0.366211, -2.319336
2348746, -0.087280, 0.797119, -0.628296, 0.793457, -3.967286, -2.441406
2348766, -0.159180, 0.802490, -0.611694, 0.366211, -6.530764, 1.708985
2348786, -0.143433, 0.808594, -0.601685, 1.220703, -0.305176, 6.530764
2348806, -0.065063, 0.808472, -0.599121, 2.563477, 4.028320, 6.347658
2348826, -0.028931, 0.803101, -0.612427, 3.662110, 3.479005, 2.807618
2348846, -0.040771, 0.795654, -0.638672, 2.502441, 1.281738, -0.671387
2348866, -0.083862, 0.795044, -0.630859, 1.342773, -2.929688, -1.525879
2348886, -0.152588, 0.802368, -0.621826, 0.671387, -3.173829, 2.014160
2348906, -0.087769, 0.802490, -0.605347, 1.525879, 6.408693, 7.202150
2348926, -0.004150, 0.806152, -0.616211, 2.197266, 7.019045, 3.601075
2348946, 0.014404, 0.799561, -0.630493, 2.197266, 3.234864, -2.685547
2348966, -0.039429, 0.794678, -0.643433, 0.610352, -3.234864, -6.469728
2348986, -0.121338, 0.795532, -0.636475, -0.976563, -6.713869, -5.126953
2349006, -0.159424, 0.798340, -0.616211, -1.098633, -2.685547, -0.122070
2349026, -0.083008, 0.800659, -0.623413, -1.098633, 2.746582, 2.441406
2349046, -0.002319, 0.802856, -0.625244, -1.525879, -0.732422, -0.671387
2349066, -0.026611, 0.804565, -0.614624, -1.708985, -5.615236, -5.615236
2349086, -0.144775, 0.802246, -0.613037, -0.549316, -6.225588, -4.211426
2349106, -0.160034, 0.806274, -0.596313, 0.671387, -1.464844, 1.159668
2349126, -0.096558, 0.808228, -0.594116, 2.319336, 5.310059, 3.479005
2349146, -0.034790, 0.803223, -0.618164, 3.479005, 5.920412, 1.281738
2349166, -0.042114, 0.801270, -0.628418, 2.990724, 2.380371, -1.953125
2349186, -0.075073, 0.791748, -0.643188, 1.831055, 0.183106, -3.356935
2349206, -0.102417, 0.794067, -0.641846, -0.061035, -0.549316, -2.014160
2349226, -0.087036, 0.797363, -0.634155, -1.464844, -0.427246, -0.854492
2349286, -0.088745, 0.800781, -0.617920, -0.732422, -3.234864, -1.770020
2349306, -0.110840, 0.803467, -0.607300, 0.183106, -3.356935, 0.000000
2349326, -0.087524, 0.805542, -0.604858, 1.098633, -1.159668, 0.610352
2349346, -0.073120, 0.804932, -0.608521, 2.075195, 0.671387, -0.244141
2349366, -0.078369, 0.804443, -0.611694, 2.929688, 1.098633, -1.342773
2349386, -0.094238, 0.796387, -0.626953, 2.990724, 0.488281, -1.403809
2349406, -0.119507, 0.796265, -0.627563, 2.563477, 2.014160, 0.915528
2349426, -0.068604, 0.798828, -0.626953, 1.586915, 2.868653, 1.647950
2349446, -0.059692, 0.798950, -0.622314, 1.525879, 1.525879, -0.183106
2349466, -0.078735, 0.794312, -0.639526, 0.854492, 3.051759, -2.502441
2349486, -0.092651, 0.793091, -0.635620, -0.488281, 2.319336, -1.647950
2349506, -0.084839, 0.797241, -0.626099, -1.159668, -0.427246, -0.183106
2349526, -0.073608, 0.804321, -0.602539, -0.183106, -1.037598, -0.183106
2349546, -0.073975, 0.804077, -0.611938, 1.098633, -0.610352, -1.159668
2349566, -0.082764, 0.798584, -0.623291, 1.525879, -0.244141, -1.525879
2349586, -0.099731, 0.796387, -0.628052, 1.159668, 0.305176, -0.915528
2349606, -0.111450, 0.797485, -0.624146, 0.915528, 0.549316, 0.976563
2349626, -0.080322, 0.798828, -0.619385, 1.098633, 3.356935, 1.892090
2349646, -0.038696, 0.798828, -0.626587, 1.159668, 3.540040, -0.305176
2349666, -0.067871, 0.792847, -0.639771, 0.000000, -1.525879, -3.845216
2349686, -0.112671, 0.793335, -0.638062, -1.159668, -2.624512, -2.258301
2349706, -0.106079, 0.797363, -0.623779, -1.708985, -1.403809, 0.183106
2349726, -0.075928, 0.800293, -0.614624, -1.159668, -1.342773, 0.793457
2349746, -0.068115, 0.801758, -0.616821, -0.671387, -2.319336, -0.183106
2349766, -0.089966, 0.799683, -0.616577, -0.183106, -2.563477, -0.183106
2349786, -0.084473, 0.802979, -0.614624, 0.244141, -0.915528, 0.061035
2349806, -0.071289, 0.799805, -0.619385, 0.793457, -0.427246, -0.671387
2349826, -0.081299, 0.803345, -0.609131, 1.403809, -0.366211, -1.220703
2349846, -0.105713, 0.797119, -0.626709, 2.014160, 0.671387, 0.244141
2349866, -0.078125, 0.794800, -0.635742, 1.220703, 1.770020, 0.732422
2349886, -0.059326, 0.795898, -0.635498, 0.183106, 0.000000, 0.000000
2349906, -0.076904, 0.794678, -0.634033, -0.793457, -2.075195, -0.976563
2349926, -0.097046, 0.798218, -0.625366, -1.159668, -1.586915, -0.183106
2349946, -0.072632, 0.798584, -0.622681, -1.098633, -1.159668, 0.000000
2349966, -0.064941, 0.800293, -0.621704, -1.159668, -2.868653, -0.915528
2349986, -0.081909, 0.799438, -0.620483, -1.159668, -3.784181, -1.770020
2350006, -0.109619, 0.802734, -0.605835, -0.366211, -3.112794, -0.732422
2350026, -0.107300, 0.804321, -0.603760, 1.037598, -0.061035, 0.549316
2350046, -0.079468, 0.801758, -0.611816, 2.929688, 3.295899, 1.220703
2350066, -0.047729, 0.797729, -0.630127, 3.356935, 2.685547, -0.366211
2350086, -0.058838, 0.793091, -0.643555, 1.770020, -0.183106, -2.563477
2350106, -0.099365, 0.792603, -0.641113, 0.244141, -2.136230, -2.014160
2350126, -0.113770, 0.794312, -0.630615, -0.671387, -2.319336, 0.427246
2350146, -0.098267, 0.798218, -0.619751, -0.671387, -1.281738, 2.258301
2350166, -0.065063, 0.797363, -0.631348, -0.610352, -1.647950, 2.014160
2350186, -0.055420, 0.795166, -0.634399, -1.892090, -2.563477, 0.000000
2350206, -0.070068, 0.799316, -0.625122, -2.502441, -2.990724, -1.525879
2350226, -0.083862, 0.804321, -0.608032, -1.953125, -2.624512, -2.807618
2350246, -0.101196, 0.808350, -0.593628, -0.244141, -2.319336, -2.075195
2350266, -0.103271, 0.804565, -0.604004, 1.464844, -2.502441, -0.793457
2350286, -0.121704, 0.803345, -0.602417, 2.685547, -0.244141, 0.915528
2350306, -0.096802, 0.799316, -0.624634, 3.479005, 2.746582, 2.319336
2350326, -0.065796, 0.794189, -0.641235, 2.380371, 1.525879, 2.014160
2350346, -0.065186, 0.795776, -0.637573, 0.610352, 0.122070, 0.793457
2350366, -0.059448, 0.792969, -0.642822, -0.549316, -1.770020, -0.854492
2350386, -0.096191, 0.792725, -0.641968, -2.441406, -5.249023, -0.915528
2350406, -0.101563, 0.801880, -0.617188, -2.929688, -3.417970, 0.610352
2350426, -0.066406, 0.806763, -0.601685, -1.098633, -3.967286, -0.610352
2350446, -0.086426, 0.806885, -0.603516, -0.122070, -5.493164, -1.464844
2350466, -0.132446, 0.807129, -0.592529, 1.831055, -4.150391, 0.000000
2350486, -0.127197, 0.803101, -0.605103, 3.479005, 1.770020, 2.685547
2350506, -0.078369, 0.802246, -0.613892, 4.150391, 3.662110, 3.479005
2350546, -0.082031, 0.793335, -0.639282, 2.685547, 1.159668, -0.549316
2350566, -0.076782, 0.789551, -0.652710, 0.488281, 1.098633, -0.366211
2350586, -0.054443, 0.792480, -0.642212, -1.586915, -2.441406, -1.464844
2350606, -0.088135, 0.800903, -0.613770, -1.892090, -5.859377, -2.746582
2350626, -0.124512, 0.800171, -0.619263, -1.281738, -6.408693, -1.159668
2350646, -0.126099, 0.801392, -0.612305, -1.098633, -1.586915, 1.403809
2350666, -0.071045, 0.802368, -0.612915, -0.366211, 1.403809, 1.220703
2350686, -0.069458, 0.803955, -0.609497, 0.122070, -0.427246, -0.549316
2350706, -0.097534, 0.804443, -0.602783, 1.281738, 0.549316, -1.037598
2350726, -0.097046, 0.800781, -0.612061, 2.624512, 2.075195, -0.671387
2350746, -0.093994, 0.799927, -0.622925, 2.563477, 2.258301, 0.061035
2350766, -0.078369, 0.796509, -0.630371, 2.075195, 2.380371, -0.122070
2350786, -0.078369, 0.796021, -0.625854, 1.586915, 1.403809, -0.671387
2350806, -0.100464, 0.796387, -0.629761, 0.732422, -0.244141, -0.793457
2350826, -0.103149, 0.795776, -0.626709, 0.549316, 0.671387, 0.854492
2350846, -0.079956, 0.795410, -0.630737, -0.061035, 0.671387, 0.976563
2350866, -0.061890, 0.795532, -0.635132, -0.915528, -0.793457, 0.122070
2350886, -0.071167, 0.799561, -0.622070, -1.586915, -2.990724, -1.281738
2350906, -0.099121, 0.803589, -0.607422, -0.671387, -3.173829, -1.098633
2350926, -0.112061, 0.804077, -0.601685, 0.610352, -1.953125, 0.366211
2350946, -0.097656, 0.802490, -0.608765, 2.136230, 1.159668, 1.403809
2350966, -0.067017, 0.798828, -0.620361, 2.502441, 1.892090, 0.671387
2350986, -0.080688, 0.797363, -0.624756, 2.014160, 0.488281, -0.915528
2351006, -0.092041, 0.796509, -0.630371, 1.647950, 0.366211, -0.427246
2351026, -0.077393, 0.792725, -0.644165, 0.488281, -0.854492, -0.183106
2351046, -0.078491, 0.795654, -0.634766, -0.671387, -2.258301, -0.671387
2351066, -0.099487, 0.796997, -0.625366, -1.159668, -2.441406, -0.366211
2351086, -0.106934, 0.797485, -0.621094, -0.976563, -1.586915, 0.854492
2351106, -0.099121, 0.802124, -0.612183, -0.488281, -0.488281, 2.319336
2351126, -0.065552, 0.799805, -0.617065, 0.000000, -1.037598, 1.831055
2351146, -0.063843, 0.800049, -0.621826, 0.244141, -2.502441, 0.122070
2351166, -0.085693, 0.799194, -0.617188, 0.549316, -2.258301, -0.793457
2351246, -0.076416, 0.794189, -0.631104, 1.281738, 1.098633, -0.549316
2351326, -0.071045, 0.794556, -0.639893, -1.770020, -2.685547, 1.464844
2351346, -0.068481, 0.800049, -0.616211, -2.075195, -3.845216, 0.366211
2351366, -0.094604, 0.804199, -0.606323, -0.671387, -2.868653, -0.671387
2351386, -0.109985, 0.802368, -0.609985, 0.549316, -0.549316, 0.427246
2351406, -0.081055, 0.801270, -0.614868, 1.281738, 1.464844, 1.037598
2351426, -0.057983, 0.799805, -0.619873, 1.281738, 0.183106, -0.427246
2351446, -0.078003, 0.798218, -0.623047, 1.525879, -0.610352, -1.708985
2351466, -0.100220, 0.796753, -0.625977, 1.281738, -0.183106, -1.342773
2351486, -0.103516, 0.797607, -0.622070, 1.037598, 1.220703, -0.122070
2351506, -0.078979, 0.794434, -0.635864, 0.976563, -0.244141, 0.671387
2351526, -0.070923, 0.794678, -0.636597, -0.366211, -2.075195, 0.244141
2351546, -0.073120, 0.794067, -0.637817, -1.770020, -3.601075, -0.488281
2351566, -0.115723, 0.801636, -0.610352, -1.647950, -4.333496, 0.427246
2351586, -0.104248, 0.804688, -0.603882, -0.427246, -0.732422, 1.953125
2351606, -0.067749, 0.804932, -0.616455, 0.793457, 0.183106, 1.403809
2351626, -0.067261, 0.798096, -0.622681, 0.549316, -0.976563, -0.183106
2351646, -0.079956, 0.797974, -0.611938, 0.915528, -0.305176, -1.220703
2351666, -0.090454, 0.800659, -0.619385, 1.403809, 0.244141, -1.342773
2351686, -0.096191, 0.798462, -0.629761, 1.281738, 0.366211, -0.610352
2351706, -0.085815, 0.795288, -0.619507, 0.549316, 0.854492, 0.122070
2351726, -0.076294, 0.797607, -0.628296, 0.366211, -0.732422, -0.427246
2351746, -0.091675, 0.800659, -0.631348, 0.488281, -1.037598, 0.122070
2351766, -0.079346, 0.792480, -0.638550, -0.793457, -1.464844, 0.427246
2351786, -0.077759, 0.799683, -0.620483, -1.464844, -2.990724, -0.122070
2351806, -0.088623, 0.800781, -0.617310, -1.098633, -1.708985, -0.366211
2351826, -0.083862, 0.801270, -0.612793, -0.732422, -1.098633, -0.549316
2351846, -0.088013, 0.803345, -0.610962, 0.000000, -1.708985, -0.610352
2351866, -0.098267, 0.801514, -0.607056, 0.793457, -0.305176, -0.244141
2351886, -0.085205, 0.799683, -0.616455, 1.831055, 0.671387, -0.305176
2351906, -0.078857, 0.801147, -0.620728, 1.892090, 0.915528, -0.732422
2351926, -0.087402, 0.798706, -0.626709, 1.220703, 0.366211, -0.915528
2351946, -0.090454, 0.799316, -0.627441, 1.220703, 0.610352, -0.732422
2351966, -0.089844, 0.795166, -0.632568, 0.549316, 0.305176, -0.366211
2351986, -0.082275, 0.795044, -0.633789, -0.427246, -1.220703, -0.061035
2352006, -0.087158, 0.799927, -0.619385, -0.854492, -2.197266, 0.244141
2352026, -0.082153, 0.800171, -0.621704, -0.671387, -2.014160, 0.061035
2352046, -0.080444, 0.800171, -0.620361, -0.610352, -2.441406, -0.244141
2352066, -0.095215, 0.802734, -0.614014, -0.427246, -2.624512, -0.183106
2352086, -0.091797, 0.804932, -0.608765, 0.549316, -0.732422, 0.000000
2352106, -0.077393, 0.801147, -0.611084, 1.403809, 0.549316, -0.793457
2352126, -0.095215, 0.796143, -0.627441, 1.586915, 0.000000, -1.342773
2352166, -0.087280, 0.798950, -0.621338, 1.281738, 1.159668, 0.061035
2352186, -0.079590, 0.798096, -0.626709, 1.281738, 0.488281, -0.183106
2352206, -0.087402, 0.794800, -0.630615, 0.610352, -1.403809, -0.244141
2352226, -0.102905, 0.795776, -0.634155, -0.244141, -1.220703, 0.793457
2352246, -0.075684, 0.795898, -0.634155, -1.098633, -1.464844, 0.854492
2352286, -0.068604, 0.803467, -0.614624, -1.281738, -3.601075, -1.281738
2352306, -0.108765, 0.804077, -0.601807, -0.305176, -3.112794, -1.708985
2352326, -0.112183, 0.801147, -0.614502, 1.708985, 2.441406, 1.342773
2352346, -0.067627, 0.800659, -0.618530, 1.953125, 3.173829, 1.098633
2352366, -0.067261, 0.799683, -0.624268, 1.831055, 1.037598, -0.427246
2352386, -0.076782, 0.796875, -0.628662, 1.464844, 0.427246, -1.281738
2352406, -0.088135, 0.796753, -0.628052, 1.098633, -0.610352, -1.525879
2352426, -0.114746, 0.796509, -0.628174, 0.427246, -0.854492, -0.061035
2352446, -0.100952, 0.796387, -0.629883, 0.183106, 0.244141, 1.525879
2352466, -0.081665, 0.796753, -0.629883, -0.488281, -0.183106, 1.953125
2352486, -0.058838, 0.797852, -0.628174, -1.037598, -1.525879, 0.976563
2352506, -0.086670, 0.802734, -0.611206, -0.732422, -3.906251, -0.671387
2352526, -0.105103, 0.800293, -0.612915, -0.183106, -1.892090, -0.122070
2352546, -0.096802, 0.800781, -0.619751, 0.122070, -0.610352, 0.671387
2352566, -0.084473, 0.805298, -0.606445, 0.793457, 0.732422, 0.549316
2352586, -0.067505, 0.800171, -0.612549, 1.831055, 1.770020, -0.671387
2352606, -0.077026, 0.797485, -0.633545, 1.647950, 0.366211, -1.708985
2352626, -0.103149, 0.797485, -0.626221, 0.732422, -0.427246, -0.976563
2352646, -0.102661, 0.799438, -0.612793, 1.403809, -0.427246, 0.732422
2352666, -0.081543, 0.793945, -0.638550, 0.915528, -1.770020, 1.342773
2352686, -0.072021, 0.796143, -0.638916, -0.427246, -3.173829, 0.854492
2352706, -0.093628, 0.798828, -0.616455, -1.098633, -4.943848, 0.488281
2352726, -0.090454, 0.799927, -0.618896, -0.854492, -3.112794, 0.549316
2352746, -0.077393, 0.798584, -0.624268, -0.976563, -2.563477, 0.000000
2352766, -0.081177, 0.801514, -0.618896, -1.220703, -3.173829, -0.854492
2352786, -0.087036, 0.804077, -0.612549, -0.793457, -1.647950, -1.525879
2352806, -0.079590, 0.802979, -0.606934, -0.183106, -2.990724, -2.441406
2352826, -0.151245, 0.810181, -0.589355, 2.075195, -1.831055, -0.122070
2352846, -0.118774, 0.798950, -0.607178, 3.479005, 5.249023, 2.502441
2352866, -0.065430, 0.793335, -0.639404, 3.173829, 5.859377, 2.075195
2352886, -0.066650, 0.795166, -0.638062, 0.793457, 2.624512, 0.244141
2352906, -0.060547, 0.795654, -0.632446, -0.366211, -1.586915, -0.854492
2352926, -0.097046, 0.796387, -0.631104, -1.037598, -3.784181, -0.854492
2352946, -0.123535, 0.798340, -0.620361, -1.525879, -1.831055, 1.098633
2352966, -0.093750, 0.802246, -0.615845, -1.159668, -0.488281, 2.746582
2352986, -0.060425, 0.805786, -0.606079, -0.305176, 0.488281, 1.586915
2353006, -0.056396, 0.803589, -0.612915, 0.732422, 0.366211, -0.976563
2353026, -0.092041, 0.798584, -0.620728, 0.854492, -1.037598, -1.770020
2353046, -0.132568, 0.805176, -0.602661, 1.525879, 1.403809, 0.610352
2353066, -0.092773, 0.804443, -0.603882, 3.356935, 5.004883, 2.441406
2353086, -0.075562, 0.797974, -0.623535, 3.601075, 4.150391, 0.854492
2353186, -0.076172, 0.800781, -0.614136, -2.014160, -4.333496, -1.403809
2353286, -0.056641, 0.800537, -0.620728, 1.647950, 0.244141, -0.732422
2353306, -0.094849, 0.799316, -0.622070, 1.586915, -0.061035, -1.220703
2353326, -0.114258, 0.798218, -0.619019, 2.075195, 2.441406, 0.732422
2353346, -0.076050, 0.796875, -0.627197, 2.136230, 2.563477, 2.197266
2353366, -0.052734, 0.793213, -0.642212, 0.854492, 0.244141, 0.915528
2353386, -0.056519, 0.791992, -0.649902, -0.732422, -2.136230, -0.305176
2353406, -0.062378, 0.792725, -0.643066, -2.685547, -4.516602, -1.403809
2353426, -0.075317, 0.796753, -0.632568, -4.089355, -5.615236, -2.136230
2353446, -0.087036, 0.805054, -0.603027, -3.356935, -5.554201, -2.014160
2353466, -0.089478, 0.807373, -0.594604, -0.549316, -5.187988, -1.342773
2353486, -0.109375, 0.804932, -0.599976, 0.915528, -5.004883, -0.976563
2353506, -0.166382, 0.807739, -0.589111, 3.173829, 0.305176, 3.112794
2353526, -0.082397, 0.801025, -0.610962, 4.699707, 6.469728, 5.126953
2353546, -0.030884, 0.796143, -0.639648, 4.150391, 5.493164, 2.075195
2353566, -0.050903, 0.792969, -0.644165, 2.380371, 2.563477, -0.610352
2353586, -0.072754, 0.790771, -0.650024, 0.610352, -3.051759, -0.610352
2353606, -0.087891, 0.793213, -0.640381, -1.342773, -5.310059, 0.061035
2353626, -0.101563, 0.800293, -0.615601, -1.281738, -3.967286, 1.281738
2353646, -0.064209, 0.804077, -0.614990, -0.915528, -4.272461, 1.037598
2353666, -0.047974, 0.800171, -0.618652, -0.122070, -4.455566, -1.342773
2353686, -0.134399, 0.804199, -0.604370, 0.549316, -9.582520, -0.305176
2353706, -0.194580, 0.805054, -0.594604, 2.258301, -1.098633, 6.042482
2353726, -0.093018, 0.801758, -0.604248, 4.516602, 9.216309, 8.605957
2353806, -0.119141, 0.796509, -0.623413, -1.342773, -6.835939, -5.126953
2353826, -0.149414, 0.797363, -0.619263, -0.732422, -3.967286, -0.671387
2353846, -0.068359, 0.796753, -0.629028, -0.183106, -0.915528, 1.892090
2353866, -0.047974, 0.797729, -0.632568, -0.854492, -2.929688, 0.000000
2353886, -0.086670, 0.795410, -0.634277, -1.770020, -5.187988, -0.793457
2353906, -0.093384, 0.800903, -0.615479, -2.014160, -2.746582, 0.183106
2353926, -0.075684, 0.804321, -0.605835, -0.976563, -3.356935, -0.427246
2353946, -0.112549, 0.806763, -0.597412, 0.976563, -0.793457, 0.122070
2353966, -0.091553, 0.802490, -0.607422, 2.502441, 3.234864, 1.159668
2353986, -0.066284, 0.797607, -0.626221, 2.502441, 3.173829, 0.122070
2354006, -0.087891, 0.800659, -0.616089, 2.990724, 2.502441, 0.183106
2354026, -0.059448, 0.791626, -0.646240, 1.586915, 1.220703, 0.183106
2354046, -0.064453, 0.794312, -0.638550, 0.061035, -1.525879, -0.854492
2354086, -0.096069, 0.792847, -0.636475, -2.258301, -4.760742, -0.793457
2354106, -0.094604, 0.797852, -0.623047, -2.929688, -3.479005, 0.549316
2354126, -0.058960, 0.804077, -0.611572, -2.197266, -3.112794, -0.427246
2354146, -0.070313, 0.808105, -0.597656, -0.976563, -3.295899, -1.953125
2354166, -0.092773, 0.805054, -0.599976, 1.037598, -4.455566, -2.563477
2354186, -0.153198, 0.803345, -0.602661, 2.624512, -1.464844, 0.366211
2354206, -0.120728, 0.796265, -0.620483, 3.356935, 5.004883, 3.784181
2354226, -0.030396, 0.795776, -0.638428, 2.136230, 5.859377, 1.953125
2354246, -0.025146, 0.797974, -0.631104, 1.098633, 2.319336, -2.258301
2354266, -0.068481, 0.796387, -0.633667, 0.854492, -1.342773, -4.211426
2354286, -0.112671, 0.789795, -0.643555, -0.671387, -3.723145, -2.624512
2354306, -0.136230, 0.794922, -0.632446, -1.831055, -2.929688, 1.342773
2354326, -0.081177, 0.798584, -0.617920, -1.831055, -0.427246, 3.173829
2354346, -0.038208, 0.804077, -0.612915, -1.159668, -1.098633, 1.037598
2354366, -0.035645, 0.800659, -0.619507, -0.915528, -5.249023, -2.624512
2354386, -0.133423, 0.804199, -0.603394, 0.244141, -5.920412, -1.953125
2354406, -0.115845, 0.801392, -0.608887, 2.075195, 2.624512, 3.479005
2354426, -0.044922, 0.798218, -0.621338, 2.441406, 4.455566, 2.136230
2354446, -0.041382, 0.797729, -0.630005, 2.197266, 1.159668, -0.671387
2354466, -0.072510, 0.795654, -0.635376, 1.342773, -0.183106, -2.136230
2354486, -0.091919, 0.796021, -0.629517, 0.610352, -1.037598, -1.525879
2354506, -0.085449, 0.794067, -0.633423, 0.061035, -0.610352, -0.793457
2354526, -0.086914, 0.794922, -0.632324, -0.976563, -4.394531, -0.244141
2354546, -0.112793, 0.800415, -0.617920, -0.732422, -3.112794, 1.892090
2354566, -0.069214, 0.798462, -0.624634, -0.732422, -0.427246, 1.953125
2354586, -0.048462, 0.798584, -0.630005, -1.220703, -2.685547, -0.061035
2354606, -0.089478, 0.803589, -0.605469, -0.549316, -2.990724, -1.953125
2354626, -0.113159, 0.801758, -0.608154, 0.549316, -0.366211, -0.976563
2354646, -0.106445, 0.802734, -0.605103, 1.892090, 1.892090, 0.915528
2354666, -0.070313, 0.800659, -0.621460, 2.380371, 3.967286, 0.671387
2354706, -0.084229, 0.797852, -0.628052, 2.197266, 2.441406, -1.281738
2354726, -0.089722, 0.795532, -0.628174, 1.831055, 1.464844, -0.732422
2354746, -0.091187, 0.794312, -0.633179, 1.342773, 1.403809, 0.488281
2354766, -0.067871, 0.793945, -0.640015, 0.183106, 1.464844, 0.366211
2354786, -0.052002, 0.794556, -0.639160, -1.647950, -3.112794, -1.953125
2354806, -0.099609, 0.800049, -0.616211, -1.831055, -4.272461, -1.953125
2354826, -0.104614, 0.801025, -0.609741, -0.610352, -1.586915, -0.366211
2354866, -0.074707, 0.800171, -0.618530, 1.159668, 0.549316, -0.244141
2354886, -0.084717, 0.798706, -0.619507, 1.159668, 0.305176, -0.854492
2354906, -0.102417, 0.798096, -0.618164, 1.708985, 1.342773, 0.183106
2354926, -0.085693, 0.799194, -0.619141, 2.014160, 2.685547, 1.098633
2354946, -0.050049, 0.796387, -0.633057, 2.014160, 1.831055, 0.183106
2354966, -0.050537, 0.793823, -0.643311, 0.915528, -0.671387, -2.197266
2354986, -0.115234, 0.791504, -0.641602, -1.464844, -2.075195, -0.671387
2355006, -0.090332, 0.801758, -0.611572, -1.953125, 0.488281, 0.671387
2355026, -0.045044, 0.804199, -0.606934, -0.122070, 0.366211, -0.732422
2355046, -0.050537, 0.802734, -0.613892, 0.671387, -2.136230, -3.601075
2355086, -0.134766, 0.799683, -0.615723, 1.647950, -0.183106, -1.953125
2355106, -0.103271, 0.797119, -0.618530, 2.441406, 3.417970, 0.305176
2355126, -0.064453, 0.793457, -0.635376, 2.319336, 2.197266, 0.366211
2355166, -0.104370, 0.792480, -0.637207, -1.281738, -3.356935, -1.342773
2355186, -0.108887, 0.793091, -0.632568, -2.258301, -3.479005, 0.854492
2355206, -0.107056, 0.798340, -0.617432, -2.136230, -3.417970, 2.929688
2355226, -0.090088, 0.801758, -0.614990, -1.525879, -3.356935, 4.028320
2355286, -0.041382, 0.797485, -0.629883, -2.014160, -7.324221, -1.770020
2355306, -0.128662, 0.807495, -0.603516, -1.342773, -9.399414, -0.671387
2355326, -0.127563, 0.801514, -0.605957, 0.183106, -5.554201, 2.319336
2355346, -0.099854, 0.801636, -0.611938, 1.037598, -1.342773, 3.295899
2355366, -0.060913, 0.802124, -0.612061, 1.892090, -0.244141, 1.953125
2355386, -0.066284, 0.792236, -0.650391, 0.610352, -4.028320, 0.610352
2355406, -0.090820, 0.795898, -0.638550, -1.342773, -4.882813, 0.488281
2355426, -0.096680, 0.797852, -0.629272, -2.563477, -5.615236, 1.281738
2355446, -0.110718, 0.804077, -0.607666, -2.319336, -6.958010, 2.868653
2355466, -0.111084, 0.806763, -0.606567, -1.586915, -5.371094, 4.516602
2355486, -0.072021, 0.806152, -0.605225, -0.976563, -2.563477, 3.906251
2355506, -0.066162, 0.813721, -0.582886, 1.831055, -1.892090, 1.831055
2355526, -0.085449, 0.809448, -0.596680, 3.234864, 1.647950, 0.427246
2355546, -0.080078, 0.798218, -0.626343, 4.455566, 2.807618, 0.061035
2355566, -0.080322, 0.800293, -0.625732, 3.173829, 5.676271, -0.732422
2355586, -0.072998, 0.801270, -0.615479, 4.211426, 8.666992, -2.197266
2355606, -0.061523, 0.794556, -0.637817, 3.601075, 8.605957, -3.845216
2355626, -0.060181, 0.790527, -0.653442, 1.708985, 2.136230, -3.967286
2355646, -0.104126, 0.791016, -0.637207, -0.366211, -4.028320, -2.380371
2355666, -0.117920, 0.797607, -0.625244, -0.671387, -1.159668, 0.061035
2355686, -0.061646, 0.793213, -0.640869, -1.159668, -0.732422, 0.244141
2355706, -0.078369, 0.802734, -0.616211, -2.258301, -3.662110, -0.366211
2355726, -0.093506, 0.807007, -0.597778, -0.244141, -3.051759, -0.610352
2355746, -0.106567, 0.797607, -0.610229, 1.708985, 0.122070, 1.342773
2355766, -0.090088, 0.796875, -0.623901, 2.075195, 0.976563, 2.075195
2355786, -0.083252, 0.797363, -0.621338, 1.708985, 1.708985, 2.685547
2355806, -0.067261, 0.799683, -0.619263, 2.014160, 1.464844, 1.464844
2355826, -0.067261, 0.800293, -0.621948, 2.319336, 3.417970, -0.122070
2355846, -0.071289, 0.797485, -0.624390, 2.441406, 2.746582, -0.854492
2355866, -0.075439, 0.792969, -0.638306, 2.136230, -0.976563, -0.549316
2355886, -0.082153, 0.789551, -0.648682, 0.366211, -2.685547, 0.061035
2355906, -0.081543, 0.794434, -0.635620, -0.915528, -3.051759, 0.366211
2355926, -0.082153, 0.792725, -0.635986, -2.319336, -4.150391, 0.793457
2355947, -0.079468, 0.795898, -0.633057, -3.356935, -3.295899, 0.671387
2355967, -0.072144, 0.806519, -0.599609, -2.746582, -2.075195, -0.122070
2356027, -0.076172, 0.796021, -0.628174, 0.976563, 0.732422, -2.624512
2356047, -0.087036, 0.796753, -0.631470, 0.061035, 2.685547, -3.173829
2356067, -0.074341, 0.793823, -0.638062, -0.976563, 3.906251, -3.845216
2356087, -0.092041, 0.797485, -0.625488, -2.014160, 2.319336, -3.295899
2356107, -0.074341, 0.805786, -0.611206, -1.281738, -0.366211, -2.441406
2356127, -0.082275, 0.808105, -0.600098, 0.061035, -4.089355, -2.441406
2356147, -0.118652, 0.806030, -0.597046, 2.136230, -6.774904, -0.244141
2356167, -0.156006, 0.804199, -0.600586, 3.601075, -4.699707, 3.784181
2356187, -0.139404, 0.807739, -0.574829, 5.737307, 2.014160, 7.812502
2356207, -0.100586, 0.796875, -0.621216, 8.789063, 7.934572, 9.277344
2356227, -0.057129, 0.787964, -0.658325, 6.774904, 13.610844, 7.385256
2356247, -0.001709, 0.779419, -0.690796, 2.624512, 12.634281, 3.784181
2356267, 0.042847, 0.783081, -0.676147, -1.953125, 3.356935, -2.441406
2356287, -0.056274, 0.796753, -0.628052, -5.065918, -10.498047, -9.094238
2356307, -0.125000, 0.804321, -0.602783, -3.295899, -10.803223, -6.713869
2356687, -0.077881, 0.799438, -0.619995, 1.831055, 0.854492, 0.061035
2356707, -0.079590, 0.800903, -0.618896, 2.258301, 1.586915, -0.610352
2356727, -0.092407, 0.799316, -0.619507, 2.258301, 2.197266, -0.305176
2356747, -0.084106, 0.799194, -0.621582, 2.563477, 3.112794, 0.427246
2356767, -0.069702, 0.798828, -0.620728, 2.807618, 3.601075, 0.061035
2356787, -0.064453, 0.792725, -0.645020, 2.136230, 2.807618, -0.732422
2356807, -0.061523, 0.786621, -0.661987, -0.183106, -2.014160, -0.976563
2356827, -0.092773, 0.791504, -0.639526, -2.624512, -4.089355, -0.244141
2356847, -0.101074, 0.800049, -0.614624, -2.685547, -1.953125, 1.098633
2356867, -0.055664, 0.805298, -0.601807, -0.549316, -0.671387, 0.366211
2356887, -0.061401, 0.803223, -0.614014, 0.671387, -1.464844, -1.525879
2356907, -0.091919, 0.801392, -0.616455, 1.281738, -0.854492, -1.708985
2356927, -0.102783, 0.800171, -0.610840, 2.075195, 1.037598, -0.671387
2356947, -0.092529, 0.799072, -0.623779, 2.746582, 2.441406, 0.793457
2357067, -0.064209, 0.798462, -0.623779, -1.770020, -2.502441, 0.122070
2357087, -0.079102, 0.800171, -0.615723, -1.159668, -3.295899, -0.305176
2357107, -0.095215, 0.803345, -0.604736, -0.427246, -0.854492, 0.183106
2357127, -0.085327, 0.804688, -0.600220, 1.831055, 2.075195, 0.610352
2357147, -0.057129, 0.800415, -0.619629, 2.807618, 3.295899, -0.793457
2357207, -0.104248, 0.790771, -0.633057, 1.525879, -0.854492, -1.892090
2357227, -0.123779, 0.791016, -0.638428, 1.037598, -0.061035, 1.953125
2357267, -0.054932, 0.797729, -0.629028, -2.624512, -6.774904, -0.549316
2357287, -0.094238, 0.799194, -0.613525, -2.136230, -5.615236, -0.915528
2357307, -0.126831, 0.803345, -0.604858, -0.793457, -3.723145, 1.464844
2357327, -0.104858, 0.800781, -0.608643, 0.549316, 0.427246, 4.150391
2357347, -0.047974, 0.802612, -0.613525, 2.014160, 2.502441, 3.051759
2357367, -0.016479, 0.797729, -0.630981, 1.892090, 1.037598, -0.976563
2357387, -0.063599, 0.799194, -0.624390, 1.586915, -1.403809, -3.845216
2357407, -0.117920, 0.798706, -0.616943, 2.319336, 0.610352, -2.624512
2357427, -0.108398, 0.792847, -0.631226, 2.685547, 3.051759, 2.075195
2357447, -0.081909, 0.792603, -0.635498, 1.708985, 3.723145, 3.601075
2357467, -0.026855, 0.791870, -0.645264, 1.098633, 3.234864, 1.708985
2357507, -0.069458, 0.790161, -0.644531, -3.173829, -7.690432, -3.601075
2357487, -0.012451, 0.789063, -0.658936, -1.037598, -2.502441, -2.014160
2357527, -0.109497, 0.796509, -0.625000, -3.662110, -7.446291, -1.892090
2357547, -0.101929, 0.800537, -0.611206, -3.112794, -7.263186, 0.366211
2357567, -0.088379, 0.805908, -0.596313, -1.342773, -3.662110, 0.793457
2357587, -0.070313, 0.804199, -0.609619, 0.305176, -0.427246, -0.427246
2357607, -0.076904, 0.800049, -0.615967, 1.281738, -1.098633, -1.037598
2357627, -0.111206, 0.802002, -0.609985, 2.563477, 2.319336, 0.488281
2357647, -0.083862, 0.797363, -0.625244, 2.990724, 3.356935, 1.831055
2357667, -0.054443, 0.793945, -0.641235, 2.319336, 3.417970, 0.854492
2357687, -0.045166, 0.790161, -0.649902, 0.610352, 1.586915, -1.220703
2357707, -0.070068, 0.789673, -0.651978, -1.464844, -3.601075, -1.892090
2357727, -0.111450, 0.795532, -0.626465, -2.563477, -4.089355, 0.000000
2357747, -0.090820, 0.799561, -0.619629, -2.380371, -0.915528, 1.464844
2357767, -0.056641, 0.802124, -0.615845, -1.647950, -1.831055, 1.037598
2357787, -0.064087, 0.802368, -0.617798, -1.281738, -3.417970, -0.427246
2357807, -0.109497, 0.804199, -0.601685, 0.366211, -1.770020, 0.183106
2357827, -0.092285, 0.803711, -0.605713, 1.892090, 2.136230, 1.403809
2357847, -0.053345, 0.800781, -0.618652, 2.807618, 2.868653, 0.244141
2357867, -0.050049, 0.798096, -0.628540, 2.624512, 0.915528, -1.708985
2357887, -0.080566, 0.795288, -0.631348, 2.136230, -0.671387, -2.502441
2357907, -0.120850, 0.792358, -0.630493, 1.525879, 0.305176, -0.366211
2357927, -0.085938, 0.796875, -0.639038, 1.098633, 0.915528, 1.892090
2357947, -0.043945, 0.790283, -0.646118, -0.732422, -0.671387, 0.793457
2357967, -0.038208, 0.795654, -0.631348, -1.464844, -3.723145, -1.953125
2357987, -0.072510, 0.795776, -0.629395, -2.014160, -5.615236, -3.540040
2358007, -0.129639, 0.804932, -0.600342, -0.854492, -2.685547, 0.122070
2358027, -0.087402, 0.803101, -0.606934, 0.427246, 1.098633, 1.098633
2358047, -0.062378, 0.804932, -0.602295, 2.258301, 2.197266, -0.122070
2358067, -0.070068, 0.800293, -0.618774, 3.112794, 2.258301, -1.342773
2358087, -0.085205, 0.794678, -0.630371, 3.173829, 1.098633, -1.403809
2358107, -0.090210, 0.793701, -0.640381, 2.197266, 2.136230, -0.610352
2358127, -0.071777, 0.793213, -0.639771, 0.915528, 2.319336, -0.671387
2358147, -0.065918, 0.794189, -0.636841, 0.000000, 0.732422, -1.342773
2358207, -0.061768, 0.796265, -0.631104, -0.488281, -0.732422, 1.342773
2358227, -0.056030, 0.798218, -0.621338, -0.854492, -2.319336, -0.366211
2358247, -0.072021, 0.798950, -0.617310, -0.244141, -2.319336, -1.586915
2358267, -0.095337, 0.799316, -0.615845, 0.366211, -2.136230, -1.525879
2358287, -0.119629, 0.803223, -0.603760, 1.403809, 0.549316, 0.305176
2358307, -0.091064, 0.798950, -0.619751, 2.807618, 3.479005, 1.831055
2358327, -0.059814, 0.796143, -0.625977, 2.746582, 3.356935, 1.098633
2358347, -0.058105, 0.794312, -0.637573, 2.380371, 2.929688, -0.366211
2358367, -0.068848, 0.791016, -0.643433, 1.220703, 0.122070, -0.915528
2358387, -0.093384, 0.792725, -0.640625, -0.671387, -1.831055, 0.732422
2358407, -0.065674, 0.795410, -0.629272, -0.976563, -0.183106, 0.549316
2358587, -0.097778, 0.819458, -0.621948, 4.455566, 11.779789, 0.244141
2358607, -0.054932, 0.824951, -0.699951, 0.732422, 17.272949, 1.037598
2358627, -0.079102, 0.846069, -0.614624, -2.258301, 22.827156, 11.718754
2358647, 0.008423, 0.911621, -0.468628, 22.216805, 18.249512, 10.314941
2358667, -0.081055, 0.781372, -0.687500, 30.639656, 10.314941, 2.685547
2358687, -0.028931, 0.769531, -0.701050, 17.272949, 11.108402, 3.906251
2358707, 0.036011, 0.816040, -0.657593, 15.563969, -0.915528, -0.610352
2358727, 0.029663, 0.786133, -0.679321, 14.038090, -18.066406, -1.098633
2358747, 0.025024, 0.682495, -0.669434, 7.263186, -29.846199, -3.906251
2358767, -0.075317, 0.626099, -0.696045, -10.070801, -33.813477, -9.216309
2358787, -0.138916, 0.697388, -0.667114, -18.615723, -19.531250, -13.183598
2358807, -0.251709, 0.723755, -0.652222, -21.179199, -11.840824, -17.150879
2358827, -0.259277, 0.763672, -0.623413, -20.385742, 1.647950, -7.385256
2358847, -0.210327, 0.824707, -0.599854, -13.671879, 2.624512, 3.112794
2358867, -0.122192, 0.827271, -0.590698, -4.150391, 15.075687, 12.573246
2358887, -0.001709, 0.825195, -0.625610, 2.624512, 23.132332, 11.474613
2358907, 0.057983, 0.811157, -0.657349, 3.479005, 20.080566, 6.408693
2358927, 0.090088, 0.790039, -0.661133, 1.220703, 6.530764, 1.403809
2358947, -0.049316, 0.776001, -0.647461, -3.906251, -10.986328, -6.042482
2358967, -0.116211, 0.781250, -0.635132, -4.760742, -8.056641, -7.507326
2358987, -0.158569, 0.799683, -0.617676, -4.150391, -3.723145, -4.333496
2359007, -0.100952, 0.827271, -0.600952, 0.244141, 2.929688, -0.061035
2359027, -0.068359, 0.825439, -0.621704, 5.249023, 0.732422, -1.525879
2359047, -0.083008, 0.766235, -0.638550, 5.004883, 0.061035, -0.305176
2359067, -0.071167, 0.754395, -0.654053, 2.319336, -0.122070, 1.464844
2359087, -0.054077, 0.764404, -0.655884, -0.061035, -0.488281, 1.525879
2359107, -0.064331, 0.777954, -0.648315, -2.075195, 0.549316, -0.061035
2359127, -0.092773, 0.806030, -0.635010, -1.403809, 2.258301, 1.403809
2359147, -0.063110, 0.799194, -0.622437, 3.540040, -0.549316, 1.525879
2359167, -0.078857, 0.793945, -0.629395, 1.892090, 0.061035, -0.061035
2359187, -0.071899, 0.791626, -0.630249, -0.183106, 1.403809, -1.647950
2359207, -0.075073, 0.789673, -0.633911, -1.281738, 0.915528, -2.929688
2359227, -0.082642, 0.788208, -0.634399, -1.403809, 0.427246, -1.953125
2359247, -0.099976, 0.800537, -0.628418, -0.488281, 2.136230, 1.281738
2359267, -0.080688, 0.801147, -0.618530, 2.929688, 5.065918, 3.479005
2359287, -0.069092, 0.790283, -0.632568, 3.662110, 9.277344, 4.028320
2359307, -0.029053, 0.793701, -0.648804, 2.441406, 7.690432, 2.624512
2359327, -0.057129, 0.780518, -0.651123, 1.586915, -0.366211, -0.732422
2359347, -0.089355, 0.775757, -0.643066, 0.305176, 0.061035, 1.159668
2359367, -0.078735, 0.793823, -0.631958, 0.366211, 2.075195, 3.234864
2359387, -0.048828, 0.799927, -0.631226, 1.037598, 4.394531, 3.051759
2359407, -0.036011, 0.794067, -0.631958, 1.037598, 5.187988, 1.647950
2359427, -0.025879, 0.787720, -0.639648, 0.305176, 3.356935, 0.488281
2359447, -0.025879, 0.788940, -0.646240, -0.183106, -3.173829, -1.770020
2359467, -0.083008, 0.797974, -0.640625, 0.366211, -4.028320, -2.563477
2359487, -0.094482, 0.782104, -0.633301, 1.037598, 0.610352, 0.000000
2359507, -0.055542, 0.784668, -0.633301, 1.342773, 3.234864, 2.258301
2359527, -0.036743, 0.788818, -0.649902, 0.122070, 1.159668, 0.854492
2359547, -0.044556, 0.789795, -0.638062, 0.305176, 0.305176, 0.549316
2359567, -0.049072, 0.789795, -0.639526, 1.708985, -0.671387, -0.549316
2359587, -0.071533, 0.776611, -0.641968, 1.708985, -1.037598, -0.244141
2359890, -0.041870, 0.806152, -0.626343, 0.427246, 1.159668, -0.732422
2359930, -0.046997, 0.783936, -0.642700, 1.464844, -0.854492, -1.464844
2359950, -0.058350, 0.782227, -0.644775, 2.319336, -0.488281, -1.098633
2359970, -0.069702, 0.777222, -0.651367, 2.502441, 0.122070, 0.061035
2359990, -0.057251, 0.774292, -0.644409, 2.380371, 0.976563, 1.098633
2360010, -0.044189, 0.781006, -0.642334, 2.929688, 0.610352, 0.854492
2360110, -0.036011, 0.787109, -0.643555, 1.464844, 4.760742, 1.464844
2360130, -0.025635, 0.794922, -0.634399, 1.892090, 4.699707, 0.061035
2360150, -0.029785, 0.789917, -0.644775, 2.014160, 3.723145, -0.732422
2360170, -0.038330, 0.780640, -0.650513, 1.098633, 3.601075, -0.183106
2360190, -0.026855, 0.775635, -0.661865, -0.061035, 2.868653, -0.793457
2360210, -0.029175, 0.782104, -0.659424, 0.305176, -0.305176, -1.098633
2360230, -0.045044, 0.774658, -0.649536, 1.281738, -1.403809, 1.037598
2360250, -0.017090, 0.780762, -0.646729, 0.915528, -1.159668, 0.366211
2360270, -0.021851, 0.789429, -0.648926, 0.000000, -3.540040, -1.342773
2360290, -0.050781, 0.793457, -0.637939, -0.244141, -2.868653, -1.281738
2360310, -0.056763, 0.789917, -0.633911, 0.183106, 0.183106, -1.159668
2360330, -0.055420, 0.781982, -0.639771, 0.122070, 1.342773, -2.197266
2360350, -0.051147, 0.785156, -0.645020, -0.183106, 1.770020, -1.770020
2360370, -0.032715, 0.798462, -0.639526, 1.037598, 1.586915, -1.342773
2360390, -0.027222, 0.785767, -0.644165, 2.014160, 1.098633, -1.403809
2360410, -0.021606, 0.780029, -0.653564, 2.014160, -0.549316, -1.159668
2360430, -0.047852, 0.769409, -0.662354, 1.525879, -2.990724, -1.464844
2360450, -0.064087, 0.765747, -0.656494, 0.610352, -2.075195, -0.427246
2360470, -0.056152, 0.770752, -0.650024, 0.549316, -1.464844, 1.770020
2360490, -0.036011, 0.785278, -0.650635, -0.366211, -1.281738, 1.525879
2360510, -0.040649, 0.793335, -0.635986, -0.854492, -1.037598, 0.427246
2360530, -0.040771, 0.796875, -0.630249, 0.427246, 0.610352, 0.183106
2360550, -0.034424, 0.795044, -0.645752, 1.220703, 1.098633, -0.976563
2360570, -0.032104, 0.779053, -0.648804, 1.281738, 0.000000, -1.953125
2360590, -0.046753, 0.773926, -0.650146, 0.427246, -0.183106, -1.708985
2360610, -0.045654, 0.781006, -0.649780, 0.000000, 0.122070, -1.037598
2360630, -0.042114, 0.781006, -0.652222, 0.183106, -0.610352, -0.305176
2360710, -0.036987, 0.780884, -0.649048, -0.061035, -1.708985, 1.525879
2360730, -0.031494, 0.791626, -0.641479, -0.122070, -1.037598, 1.037598
2360750, -0.030029, 0.796143, -0.636841, 0.488281, -1.098633, -0.488281
2360770, -0.054199, 0.790039, -0.642822, 0.732422, -1.342773, -1.831055
2360790, -0.045532, 0.786255, -0.639038, 1.037598, 2.136230, -1.525879
2360810, -0.037109, 0.779541, -0.654541, 1.037598, 1.525879, -1.403809
2360890, -0.045288, 0.773193, -0.657349, 0.366211, -0.549316, 0.671387
2360910, -0.035767, 0.781982, -0.651001, 0.488281, -1.647950, 1.586915
2360930, -0.030884, 0.788940, -0.648804, 0.793457, -1.647950, 0.854492
2360950, -0.036377, 0.785767, -0.643677, 1.281738, -1.831055, 0.122070
2360970, -0.045532, 0.776245, -0.647949, 0.732422, -1.586915, 0.488281
2360990, -0.051514, 0.788818, -0.642090, -1.037598, -0.183106, -1.770020
2361010, -0.047729, 0.788818, -0.637695, -0.244141, 0.549316, -1.770020
2361030, -0.040527, 0.793335, -0.644043, 0.793457, 0.366211, -0.976563
2361050, -0.037231, 0.782837, -0.647705, 1.647950, -0.305176, -0.549316
2361070, -0.057739, 0.780273, -0.652954, 1.403809, 0.061035, -0.732422
2361090, -0.057373, 0.776123, -0.650391, 1.342773, 2.258301, -0.122070
2361110, -0.044189, 0.774292, -0.652710, 1.953125, 2.990724, 0.793457
2361130, -0.040649, 0.772461, -0.661621, 2.136230, 2.624512, 1.647950
2361150, -0.041504, 0.770020, -0.657715, 1.037598, 2.258301, 2.624512
2361170, -0.040283, 0.798828, -0.641357, 1.525879, 4.028320, 0.976563
2361190, -0.046387, 0.797119, -0.632813, 3.906251, 8.361816, 1.831055
2361210, -0.036255, 0.781250, -0.641357, 4.943848, 10.986328, 2.807618
2361230, -0.020752, 0.772949, -0.659790, 3.845216, 11.108402, 1.647950
2361250, -0.022827, 0.775391, -0.661621, 2.746582, 12.023930, 0.549316
2361270, -0.028320, 0.794922, -0.655518, 3.112794, 11.047363, 0.061035
2361290, -0.045288, 0.805542, -0.645508, 5.310059, 12.634281, 2.197266
2361310, -0.024170, 0.756592, -0.643799, 8.605957, 9.704590, 7.690432
2361330, 0.002808, 0.806030, -0.653564, 11.291508, 14.282230, 8.789063
2361350, 0.005737, 0.798584, -0.648071, 17.028809, 14.404301, 12.146000
2361370, 0.054932, 0.815063, -0.668823, 18.615723, 8.483887, 13.488773
2361390, 0.039063, 0.890747, -0.684692, 22.766121, -2.197266, 16.967773
2361410, 0.049805, 0.900269, -0.677856, 30.090340, -14.831547, 42.175293
2361430, 0.189941, 0.808838, -0.680542, 33.508301, -25.390633, 57.495132
2361450, 0.266968, 0.637085, -0.734741, 22.949226, -45.837418, 54.443375
2361550, 0.117554, 0.645630, -0.707153, -24.902351, -130.249023, 34.912109
2361570, 0.026001, 0.590210, -0.641846, -27.160652, -149.230957, 21.667480
2361590, -0.195679, 0.678101, -0.585815, -21.118164, -135.070801, 31.433113
2361610, -0.158447, 0.785767, -0.597412, -14.038090, -119.079620, 27.954109
2361630, -0.282471, 0.767700, -0.587158, -7.690432, -99.914581, 5.798342
2361650, -0.410400, 0.719971, -0.587524, -3.906251, -69.885254, -2.746582
2361670, -0.407104, 0.685913, -0.613037, -10.925293, -42.297363, 2.990724
2361690, -0.333984, 0.750488, -0.594116, -17.150879, -21.057129, 2.563477
2361710, -0.306152, 0.841187, -0.602051, -17.150879, -6.164553, -5.310059
2361890, -0.109863, 0.722046, -0.619263, 10.925293, 59.326187, -14.770512
2361910, -0.105347, 0.638062, -0.651245, 8.178711, 62.316910, -14.953617
2361930, -0.071411, 0.732666, -0.640137, 6.164553, 71.838379, -13.000492
2361950, -0.044067, 0.861938, -0.603394, 18.981934, 83.251953, -10.742188
2361970, -0.037354, 0.884399, -0.617065, 34.362793, 90.759308, -9.582520
2362030, 0.075195, 0.684570, -0.725098, 47.729507, 102.783234, -0.976563
2362050, 0.097900, 0.659180, -0.740234, 43.212891, 103.027374, -5.187988
2362070, 0.153442, 0.684204, -0.763184, 33.935547, 90.087921, -7.934572
2362090, 0.215576, 0.710693, -0.765991, 25.512703, 70.129395, -14.221195
2362110, 0.236572, 0.734497, -0.772583, 21.545410, 42.419434, -14.282230
2362130, 0.194092, 0.734741, -0.730591, 23.071297, 36.987305, 2.563477
2362150, 0.235596, 0.644653, -0.768799, 19.775391, 33.386230, 7.995607
2362170, 0.213745, 0.595337, -0.801636, 2.746582, 31.677254, -3.234864
2362190, 0.220459, 0.647339, -0.743042, -6.835939, 23.925789, -15.197758
2362210, 0.187622, 0.714722, -0.736084, -1.647950, 14.282230, -15.258793
2362230, 0.141724, 0.711670, -0.778076, -0.183106, 11.840824, -8.239746
2362250, 0.125488, 0.680054, -0.769165, -0.915528, 18.249512, -0.427246
2362270, 0.124146, 0.635010, -0.729126, -0.671387, 31.616219, 4.699707
2362290, 0.126343, 0.606812, -0.681885, -0.366211, 52.673355, 8.239746
2362310, 0.131348, 0.606445, -0.700684, 4.699707, 71.777344, 4.333496
2362330, 0.191040, 0.638428, -0.765259, -2.929688, 80.017090, 5.859377
2362350, 0.260376, 0.742065, -0.740112, -4.333496, 69.763184, 8.972168
2362370, 0.283203, 0.728882, -0.700806, 4.699707, 69.702148, 11.779789
2362390, 0.278320, 0.663574, -0.665771, 13.671879, 82.458496, 18.432617
2362410, 0.299683, 0.644043, -0.631226, 19.042969, 109.680206, 19.897461
2362430, 0.315918, 0.668701, -0.617920, 23.681648, 132.812500, 22.888191
2362450, 0.352295, 0.592896, -0.599976, 26.306160, 156.555176, 27.099617
2362490, 0.494019, 0.600586, -0.627197, 17.028809, 184.265198, 24.475105
2362510, 0.551392, 0.631470, -0.605469, 14.038090, 176.025391, 26.123055
2362530, 0.629883, 0.589844, -0.539063, 10.681152, 165.832520, 28.625496
2362550, 0.679688, 0.583618, -0.510498, 9.155273, 147.094727, 26.306160
2362570, 0.734619, 0.532349, -0.493530, 6.835939, 123.230011, 17.639160
2362590, 0.817261, 0.569092, -0.425781, 4.028320, 97.534210, 9.338379
2362690, 0.814087, 0.601807, -0.426392, -2.075195, -25.817879, 0.671387
2362710, 0.764648, 0.564331, -0.436768, -5.004883, -33.935547, -0.793457
2362730, 0.673706, 0.498901, -0.403198, -0.915528, -33.142090, 4.211426
2362750, 0.678223, 0.479614, -0.441284, -1.098633, -35.949707, 5.065918
2362770, 0.680908, 0.502563, -0.441040, -5.859377, -32.043457, 0.305176
2362790, 0.708008, 0.598999, -0.421265, -5.310059, -40.588379, -2.929688
2362810, 0.759399, 0.665405, -0.412109, 3.417970, -42.419434, -3.723145
2362830, 0.766846, 0.655518, -0.466187, 3.845216, -44.921890, -10.681152
2362850, 0.639771, 0.559082, -0.410767, 6.896975, -44.616714, -5.187988
2362870, 0.604370, 0.457031, -0.462036, 5.615236, -35.339355, -1.831055
2362890, 0.638062, 0.535400, -0.496460, -7.324221, -11.840824, -11.108402
2362910, 0.672852, 0.636230, -0.520874, -2.685547, -16.967773, -10.620117
2362930, 0.697144, 0.638428, -0.524414, 3.540040, -36.010742, -0.793457
2362950, 0.675415, 0.609985, -0.540771, 9.582520, -40.527344, 4.760742
2363030, 0.585815, 0.566162, -0.573120, -11.047363, -53.039566, -18.676758
2363050, 0.576294, 0.584961, -0.541504, -11.047363, -46.325699, -11.535648
2363070, 0.639893, 0.611938, -0.523071, -3.601075, -35.583496, 0.488281
2363090, 0.646729, 0.605469, -0.552124, 3.051759, -32.775879, -6.286623
2363110, 0.633301, 0.566650, -0.600342, 4.699707, -37.536621, -16.235352
2363130, 0.601074, 0.528320, -0.621704, -0.244141, -44.677750, -24.719246
2363150, 0.524170, 0.616943, -0.616577, -4.821777, -46.386734, -24.963387
2363170, 0.461060, 0.675903, -0.606567, -3.723145, -39.978027, -15.686039
2363190, 0.486694, 0.671021, -0.612671, 0.671387, -35.705566, -12.451176
2363210, 0.486328, 0.647339, -0.639771, 7.019045, -36.071777, -17.639160
2363230, 0.460449, 0.600464, -0.696411, 7.568361, -46.325699, -20.446777
2363250, 0.400146, 0.609497, -0.699463, 2.868653, -48.278824, -16.601563
2363270, 0.394897, 0.581909, -0.690918, 3.479005, -53.466812, -19.409180
2363290, 0.354370, 0.575195, -0.686768, -0.732422, -39.245605, -21.057129
2363310, 0.383911, 0.612427, -0.665771, -0.366211, -23.986824, -19.653320
2363330, 0.418335, 0.640991, -0.668823, -0.061035, -10.925293, -16.784668
2363350, 0.488647, 0.674072, -0.656250, -0.732422, -8.850098, -18.127441
2363370, 0.513550, 0.558228, -0.655273, 4.211426, -27.587898, -11.047363
2363390, 0.473511, 0.593750, -0.644043, 6.103518, -39.672852, -14.099125
2363410, 0.435669, 0.579346, -0.690063, -0.061035, -54.748550, -15.319828
2363430, 0.403320, 0.645264, -0.681030, -6.164553, -64.453125, -13.793949
2363450, 0.271606, 0.712280, -0.716064, -5.065918, -57.128922, -15.136723
2363470, 0.226318, 0.654663, -0.731689, -4.455566, -34.667969, -12.451176
2363490, 0.192749, 0.570313, -0.690796, -0.976563, -17.089844, -0.244141
2363510, 0.257446, 0.608276, -0.664795, 3.540040, 3.234864, 3.662110
2363530, 0.284424, 0.617188, -0.729248, 3.540040, 17.395020, -0.549316
2363550, 0.279175, 0.637573, -0.721436, 2.014160, 28.259285, -2.075195
2363570, 0.311890, 0.630005, -0.739624, -0.732422, 33.081055, -2.502441
2363590, 0.331543, 0.662476, -0.732788, -4.882813, 30.029305, -3.967286
2363610, 0.350586, 0.708740, -0.703003, -3.173829, 23.925789, 0.793457
2363710, 0.363647, 0.670288, -0.671387, 3.784181, 13.916019, 7.202150
2363790, 0.388916, 0.611938, -0.677490, 4.699707, 5.249023, -2.563477
2363810, 0.416748, 0.616211, -0.681152, 2.624512, 8.117676, -2.258301
2363830, 0.366699, 0.676392, -0.694946, 5.554201, 1.525879, -1.220703
2363850, 0.329102, 0.673706, -0.716797, 7.751467, 0.183106, -0.671387
2363870, 0.355591, 0.619141, -0.713623, 7.995607, 2.197266, 0.366211
2363890, 0.406616, 0.606567, -0.716553, 6.225588, -0.427246, 0.061035
2363910, 0.406250, 0.614136, -0.697998, 5.859377, -6.408693, -1.708985
2363930, 0.356567, 0.651245, -0.721924, 3.295899, -10.070801, -2.075195
2363950, 0.369263, 0.668457, -0.694336, 2.441406, -11.291508, -1.708985
2363970, 0.367676, 0.657227, -0.684937, 3.906251, -12.146000, -3.051759
2363990, 0.354004, 0.656982, -0.692139, 3.784181, -10.742188, -3.540040
2364010, 0.366089, 0.650635, -0.690552, 5.798342, -9.155273, -4.394531
2364030, 0.347168, 0.608154, -0.716431, 5.371094, -10.192871, -3.234864
2364050, 0.379272, 0.585083, -0.724487, 4.394531, -15.258793, -4.272461
2364070, 0.344482, 0.600464, -0.745483, 2.014160, -19.042969, -7.934572
2364090, 0.339722, 0.612427, -0.739868, 2.075195, -20.568848, -10.864258
2364110, 0.291138, 0.581909, -0.759521, -1.892090, -22.399910, -12.451176
2364130, 0.231689, 0.595459, -0.749146, -8.666992, -16.357422, -11.535648
2364150, 0.197632, 0.627075, -0.730591, -10.009766, -6.896975, -5.920412
2364170, 0.223267, 0.666870, -0.707886, -9.094238, 5.920412, -0.183106
2364190, 0.307617, 0.701660, -0.696777, -3.662110, 9.826660, 2.441406
2364210, 0.343994, 0.646606, -0.723022, 1.770020, 10.986328, 0.732422
2364230, 0.362671, 0.601685, -0.742188, -1.037598, 5.249023, -3.051759
2364250, 0.349487, 0.611938, -0.716797, -3.479005, 0.183106, -4.638672
2364270, 0.323730, 0.638306, -0.710693, -2.868653, -1.525879, -1.098633
2364290, 0.325928, 0.664429, -0.707275, -2.075195, -3.356935, 1.770020
2364310, 0.292114, 0.665161, -0.723145, 0.000000, -6.225588, 1.403809
2364330, 0.276367, 0.649902, -0.725830, -2.258301, -3.967286, 1.403809
2364350, 0.302490, 0.657349, -0.707031, -2.014160, -1.342773, 1.708985
2364370, 0.316528, 0.647583, -0.710083, -1.464844, 0.732422, 2.380371
2364390, 0.312012, 0.644531, -0.710938, -1.708985, 2.685547, 3.173829
2364410, 0.295532, 0.655273, -0.716187, -1.037598, 6.469728, 2.807618
2364430, 0.323975, 0.648315, -0.700684, -0.671387, 9.582520, 1.464844
2364450, 0.354248, 0.660645, -0.698364, 0.854492, 7.507326, 0.305176
2364470, 0.369019, 0.659058, -0.697998, 1.281738, 4.394531, 0.244141
2364490, 0.357666, 0.641357, -0.702026, 1.586915, -2.258301, -0.732422
2364510, 0.308594, 0.635132, -0.717651, 1.220703, -3.723145, -0.061035
2364530, 0.295288, 0.629150, -0.731445, 1.037598, -3.112794, 1.403809
2364550, 0.297852, 0.619873, -0.737427, -1.403809, -0.366211, 1.953125
2364570, 0.337646, 0.642090, -0.704956, -2.990724, 1.037598, 3.540040
2364590, 0.343628, 0.661743, -0.694580, -1.403809, 1.647950, 2.929688
2364610, 0.347168, 0.665649, -0.691895, 0.000000, 3.417970, 2.624512
2364630, 0.341797, 0.646606, -0.707764, 0.061035, 0.427246, 0.854492
2364650, 0.300171, 0.654297, -0.711426, -0.305176, -0.122070, -1.525879
2364670, 0.326172, 0.650269, -0.697021, 0.122070, 0.549316, -1.647950
2364730, 0.318115, 0.650391, -0.702881, 2.868653, -0.976563, -2.929688
2364770, 0.328369, 0.612549, -0.728760, -0.366211, -0.244141, 0.183106
2364790, 0.340820, 0.629761, -0.713379, -2.624512, -2.929688, -0.854492
2364810, 0.339355, 0.666504, -0.696289, -1.403809, -3.112794, -1.281738
2364830, 0.334473, 0.675537, -0.689209, 0.427246, -3.112794, -1.770020
2364850, 0.322021, 0.668945, -0.704346, 1.342773, -4.638672, -3.295899
2364870, 0.305420, 0.654419, -0.717407, 0.305176, -3.723145, -4.028320
2364890, 0.310059, 0.643188, -0.722900, -1.098633, -4.943848, -4.028320
2364910, 0.306885, 0.643555, -0.706787, -1.098633, -3.784181, -2.807618
2364930, 0.318604, 0.649414, -0.702148, 0.244141, 1.586915, -1.831055
2364950, 0.349243, 0.650757, -0.703491, 0.732422, 2.258301, -1.892090
2364970, 0.343994, 0.662842, -0.708618, 2.075195, -5.676271, -1.220703
2364990, 0.308716, 0.636475, -0.728882, 0.915528, -7.080080, -0.976563
2365010, 0.299561, 0.630371, -0.719971, -0.976563, -7.751467, -0.061035
2365030, 0.293701, 0.654663, -0.716797, -2.624512, -5.798342, 1.403809
2365050, 0.293091, 0.667847, -0.697998, -1.281738, -0.610352, 2.258301
2365070, 0.299072, 0.651978, -0.714966, -1.586915, 2.807618, 1.037598
2365090, 0.308838, 0.656128, -0.707520, -2.441406, 4.699707, -0.305176
2365110, 0.311646, 0.652222, -0.704834, -0.915528, 2.685547, 0.305176
2365130, 0.315186, 0.656006, -0.700562, -0.915528, 3.662110, 0.793457
2365150, 0.341431, 0.656738, -0.694458, -0.244141, 4.211426, 1.831055
2365170, 0.341064, 0.656128, -0.715820, -0.549316, -1.892090, 0.976563
2365190, 0.296143, 0.647217, -0.718262, -1.831055, -2.075195, 1.342773
2365210, 0.304443, 0.649170, -0.708008, -1.647950, 0.793457, 2.990724
2365230, 0.338379, 0.651855, -0.702271, -2.380371, 1.525879, 3.845216
2365250, 0.347534, 0.658325, -0.685059, -1.708985, 0.854492, 2.685547
2365270, 0.327881, 0.659912, -0.705322, -0.732422, -1.037598, 0.427246
2365290, 0.311646, 0.674194, -0.706543, -1.159668, -1.708985, -1.586915
2365310, 0.305786, 0.669678, -0.699097, -0.183106, 0.000000, -1.464844
2365330, 0.336426, 0.645142, -0.695190, 0.976563, -0.610352, -1.159668
2365350, 0.311157, 0.652344, -0.703491, -0.610352, -0.305176, -3.540040
2365370, 0.319702, 0.653442, -0.704224, 0.061035, -0.427246, -4.760742
2365390, 0.313721, 0.664429, -0.706909, -0.915528, 0.000000, -3.479005
2365410, 0.334229, 0.664063, -0.703735, 0.305176, 0.488281, -0.549316
2365430, 0.340332, 0.660522, -0.708984, 0.122070, -2.380371, 0.610352
2365450, 0.330078, 0.667969, -0.695190, 0.122070, -2.502441, -0.305176
2365470, 0.332520, 0.659668, -0.687988, 0.671387, -1.159668, 0.305176
2365490, 0.334595, 0.656006, -0.700562, 1.525879, -4.943848, -0.915528
2365510, 0.302979, 0.658447, -0.721069, -0.061035, -9.887695, -3.051759
2365530, 0.295044, 0.667847, -0.720703, -0.671387, -13.793949, -5.004883
2365570, 0.303833, 0.676392, -0.688721, 3.051759, -3.051759, -5.554201
2365590, 0.311401, 0.658203, -0.700317, 3.906251, 0.122070, -4.028320
2365690, 0.286987, 0.671143, -0.694702, 3.173829, 1.037598, -5.249023
2365710, 0.280029, 0.692383, -0.763916, 0.976563, 1.647950, -3.112794
2365730, 0.305176, 0.615967, -0.692871, 5.249023, -2.075195, -1.403809
2365750, 0.307617, 0.668823, -0.719971, -2.624512, -0.183106, -1.647950
2365770, 0.354370, 0.697632, -0.658203, 3.845216, -5.615236, -3.662110
2365790, 0.323364, 0.687378, -0.743530, 3.967286, -14.160160, -5.065918
2365810, 0.304810, 0.674683, -0.707031, 2.258301, -20.324707, -3.601075
2365830, 0.268921, 0.653442, -0.731689, 1.037598, -21.484375, -6.042482
2365850, 0.217529, 0.642822, -0.715942, -0.610352, -12.329105, -4.638672
2365870, 0.182251, 0.668579, -0.732544, -1.953125, 5.554201, -0.366211
2365890, 0.244629, 0.657593, -0.693726, 0.549316, 19.531250, 4.394531
2365910, 0.315308, 0.643188, -0.714233, 3.051759, 19.042969, 5.737307
2365930, 0.324951, 0.665649, -0.701782, 2.929688, 12.756351, 7.507326
2365950, 0.343506, 0.652100, -0.717651, 3.906251, 3.356935, 4.699707
2365970, 0.297852, 0.659668, -0.710571, 1.892090, -3.295899, 1.281738
2365990, 0.265503, 0.678955, -0.709595, 3.295899, -0.427246, 0.793457
2366010, 0.278809, 0.666260, -0.719360, 3.540040, 3.723145, 0.610352
2366030, 0.288452, 0.656006, -0.721436, 2.319336, 5.493164, -1.037598
2366050, 0.293823, 0.641479, -0.718140, 2.075195, 5.004883, -0.854492
2366070, 0.301025, 0.637329, -0.720215, 1.098633, 4.394531, -0.305176
2366090, 0.320190, 0.646118, -0.706909, 1.647950, 2.685547, 0.244141
2366110, 0.300415, 0.661987, -0.720581, 3.784181, 1.403809, 2.136230
2366130, 0.315796, 0.640503, -0.721191, 2.685547, -0.183106, 1.037598
2366150, 0.291992, 0.644043, -0.721680, 0.854492, -1.098633, -0.915528
2366170, 0.279297, 0.648682, -0.723022, 0.427246, 1.586915, -1.647950
2366190, 0.293457, 0.636353, -0.720093, -0.427246, 0.976563, -2.441406
2366210, 0.287476, 0.651123, -0.718262, -1.037598, 2.075195, -3.479005
2366230, 0.293457, 0.655029, -0.718018, -1.342773, 3.601075, -2.746582
2366250, 0.311646, 0.663940, -0.699829, -1.464844, 2.929688, -2.441406
2366270, 0.308960, 0.660889, -0.703491, 1.647950, 2.868653, -3.356935
2366290, 0.326904, 0.650391, -0.722046, 0.549316, 2.258301, -1.464844
2366310, 0.326904, 0.651001, -0.714111, -0.427246, -5.249023, -2.990724
2366330, 0.277588, 0.652466, -0.712402, -0.122070, -4.943848, -2.136230
2366350, 0.272949, 0.641846, -0.727051, -0.732422, -2.563477, -1.953125
2366370, 0.283569, 0.631104, -0.720825, -2.685547, -3.845216, -2.807618
2366390, 0.277954, 0.641235, -0.719971, -4.516602, -2.563477, -4.272461
2366410, 0.286133, 0.677246, -0.710571, -4.211426, 0.854492, -4.516602
2366430, 0.299194, 0.663086, -0.714111, -1.953125, -1.281738, -6.896975
2366450, 0.269409, 0.665894, -0.715332, -3.234864, -1.159668, -8.300781
2366470, 0.302612, 0.700562, -0.689087, -0.915528, -0.183106, -3.479005
2366490, 0.341187, 0.677490, -0.692505, 2.929688, -4.455566, -1.037598
2366510, 0.300903, 0.651733, -0.703613, 1.647950, -6.347658, -0.610352
2366590, 0.243408, 0.635010, -0.728882, -0.793457, -13.000492, -5.920412
2366610, 0.232544, 0.640991, -0.709961, -2.258301, -6.713869, -6.408693
2366630, 0.251709, 0.668945, -0.698608, -1.770020, 4.760742, -2.807618
2366650, 0.304565, 0.698608, -0.722778, 1.220703, 6.958010, -3.601075
2366690, 0.270996, 0.672974, -0.731323, 2.502441, -0.549316, -4.028320
2366710, 0.247070, 0.679565, -0.713501, 7.202150, -0.305176, -9.521484
2366730, 0.212769, 0.627808, -0.731445, 8.483887, 1.403809, -10.253906
2366750, 0.217773, 0.634155, -0.726929, 5.737307, 7.080080, -7.385256
2366770, 0.295776, 0.633301, -0.718018, 2.990724, 7.995607, -0.610352
2366790, 0.299316, 0.677856, -0.721436, -1.159668, 10.192871, 4.699707
2366850, 0.230469, 0.525024, -0.792358, -45.898453, 5.187988, -31.921394
2366870, 0.067139, 1.056030, -0.475952, -5.554201, -1.525879, 31.616219
2366930, 0.398560, 0.643188, -0.707153, -16.296387, -91.430695, -15.686039
2366950, -0.079834, 0.654907, -0.488647, 0.244141, -74.707031, 11.169437
2366970, 0.143311, 0.650635, -0.711182, 13.549809, -11.413578, 26.794441
2366990, 0.025513, 0.600830, -0.638428, 21.667480, 22.583015, 46.264664
2367010, 0.035400, 0.817261, -0.718994, 20.080566, 70.068359, 48.095718
2367030, 0.166748, 0.770020, -0.722900, 14.587406, 96.191437, 37.231445
2367050, 0.371704, 0.710571, -0.709351, 7.324221, 73.852539, 24.719246
2367070, 0.472046, 0.658081, -0.655029, 6.958010, 37.658691, 19.104004
2367130, 0.079102, 0.677368, -0.624512, 10.681152, 33.630371, 25.085457
2367150, 0.350464, 0.763672, -0.789185, 4.882813, 74.523926, 29.052742
2367170, 0.787231, 0.745117, -0.706787, -19.226074, 67.993164, 2.258301
2367190, 0.637817, 0.769531, -0.640747, -30.029305, 15.014652, -13.427738
2367210, 0.675781, 0.755005, -0.680908, -43.518066, -52.124039, -28.564461
2367230, 0.614380, 0.611328, -0.625610, -50.476089, -94.848663, -45.959488
2367250, 0.315430, 0.670044, -0.620361, -35.522461, -92.102081, -45.227066
2367270, 0.247681, 0.720337, -0.657837, -43.762207, -72.753906, -47.241226
2367310, 0.064331, 0.734253, -0.662842, -40.161133, -26.306160, -21.728516
2367330, 0.239502, 0.675293, -0.552368, -37.719727, -22.583015, -15.441898
2367450, 0.106079, 0.792725, -0.678711, 9.704590, -0.061035, -8.789063
2367470, 0.208130, 1.001709, -0.539185, 16.967773, 12.390141, -13.183598
2367490, 0.186523, 1.051880, -0.453125, 81.848145, -17.272949, -36.499023
2367510, 0.194824, 0.416260, -0.785522, 67.260742, -7.812502, -37.963867
2367530, 0.183350, 0.365112, -0.882446, 14.648441, -20.751953, -64.147949
2367550, -0.200073, 0.503174, -0.819214, -28.137215, -6.530764, -59.387222
2367570, -0.352173, 0.551758, -0.709595, -57.006851, 36.193848, -35.400391
2367590, -0.397949, 1.444092, -0.105591, -23.986824, 90.271027, 56.518570
2367610, 0.941162, 0.700806, -0.720459, -2.319336, 73.913574, 39.611816
2367630, 0.268066, 0.764282, -0.682495, -0.122070, 5.432129, 7.812502
2367650, 0.120972, 0.765991, -0.653320, 0.488281, 6.530764, 13.061527
2367670, 0.293213, 0.768066, -0.648560, -2.746582, 5.432129, 10.620117
2367690, 0.332397, 0.773071, -0.614746, -2.197266, -3.662110, 4.943848
2367710, 0.253418, 0.771729, -0.630371, -3.601075, -17.333984, -1.464844
2367730, 0.219482, 0.765137, -0.657471, -4.211426, -27.343758, 1.464844
2367750, 0.262817, 0.776001, -0.622681, -6.774904, -44.006348, 0.061035
2367770, 0.166382, 0.773560, -0.601563, -11.047363, -55.969254, 9.155273
2367790, 0.118042, 0.805298, -0.507935, -17.578125, -19.714355, 59.692398
2367810, 0.263794, 0.793091, -0.629639, -24.230965, 6.103518, 66.040039
2367830, 0.187744, 0.749634, -0.591553, -17.211914, 54.748550, 55.786148
2367870, 0.182739, 0.753906, -0.591797, -27.099617, -64.819336, 53.833023
2368050, 0.204346, 0.778198, -0.608887, 1.770020, -10.559082, -20.446777
