timestamp,ax,ay,az,gx,gy,gz
1139452, 0.561279, 0.491333, -0.680908, 0.305176, -1.403809, -0.915528
1139472, 0.547607, 0.492432, -0.678589, 1.098633, -0.915528, -0.061035
1139492, 0.545776, 0.485596, -0.692383, 0.488281, -0.854492, -0.610352
1139512, 0.532837, 0.507202, -0.705566, -0.122070, -1.037598, -0.915528
1139532, 0.541260, 0.493530, -0.698730, 0.732422, -0.793457, -0.244141
1139552, 0.542236, 0.488892, -0.691406, 0.305176, -1.342773, -0.061035
1139572, 0.547119, 0.484131, -0.689819, 0.122070, -2.197266, -0.976563
1139592, 0.546753, 0.489136, -0.692139, -0.183106, -2.258301, -1.586915
1139612, 0.551636, 0.498047, -0.683228, 0.183106, -1.403809, -1.403809
1139632, 0.550171, 0.492432, -0.682129, 0.305176, -0.427246, -0.610352
1139652, 0.543823, 0.498413, -0.688843, -0.671387, 0.305176, -0.183106
1139672, 0.546021, 0.497192, -0.693604, -0.549316, 0.000000, -0.488281
1139692, 0.538208, 0.501709, -0.702881, -0.732422, -0.976563, -0.915528
1139712, 0.535767, 0.501953, -0.702881, -0.122070, -0.976563, -1.464844
1139732, 0.536743, 0.492920, -0.692505, -0.061035, -1.281738, -2.197266
1139752, 0.544189, 0.497559, -0.688599, -0.732422, -0.671387, -1.281738
1139772, 0.555420, 0.508423, -0.682251, 0.122070, -0.366211, -0.366211
1139792, 0.553955, 0.497681, -0.687134, 0.122070, 0.366211, 0.305176
1139812, 0.544434, 0.494263, -0.695557, -1.708985, 1.586915, -0.793457
1139832, 0.532837, 0.509888, -0.685181, -1.281738, 1.037598, -0.915528
1139852, 0.540039, 0.503540, -0.692627, 0.671387, 0.427246, -0.671387
1139872, 0.540283, 0.493164, -0.692627, 0.549316, -0.305176, -0.366211
1139892, 0.537354, 0.488892, -0.692017, -0.305176, -0.305176, -1.037598
1139912, 0.543335, 0.503174, -0.690552, -0.366211, -0.427246, -0.793457
1139932, 0.545410, 0.508179, -0.691895, -0.305176, -0.732422, 0.061035
1139952, 0.542236, 0.503784, -0.684937, 0.366211, -0.549316, -0.061035
1139972, 0.544312, 0.491943, -0.689941, 0.244141, -1.037598, -1.342773
1139992, 0.533325, 0.491455, -0.690308, -1.037598, 0.000000, -1.708985
1140012, 0.550293, 0.504028, -0.685303, -1.342773, 0.793457, -1.281738
1140032, 0.545776, 0.506104, -0.682373, -0.854492, 0.183106, -1.098633
1140052, 0.538818, 0.505371, -0.681519, -0.366211, 0.000000, -0.915528
1140072, 0.544800, 0.508789, -0.687012, 0.305176, 0.000000, 0.183106
1140092, 0.548340, 0.500977, -0.694092, -0.183106, -0.488281, -0.671387
1140112, 0.535645, 0.495850, -0.686646, -1.037598, -0.305176, -1.586915
1140132, 0.539795, 0.504761, -0.691528, -1.464844, 0.122070, -1.647950
1140152, 0.542236, 0.519897, -0.686401, -0.610352, 0.000000, -0.976563
1140172, 0.542236, 0.506104, -0.681274, 0.366211, -0.366211, -0.671387
1140192, 0.540894, 0.497803, -0.681519, -0.122070, 0.305176, -0.671387
1140212, 0.553101, 0.501465, -0.687378, -0.793457, 0.427246, -1.220703
1140232, 0.543335, 0.505615, -0.683472, -0.915528, -0.244141, -1.831055
1140252, 0.544312, 0.507690, -0.688843, -0.793457, -0.427246, -2.136230
1140272, 0.531250, 0.506104, -0.684082, -1.098633, -0.244141, -1.708985
1140292, 0.543945, 0.507080, -0.685669, -1.586915, 0.793457, -1.037598
1140312, 0.546021, 0.513062, -0.674438, -0.793457, 0.366211, -1.159668
1140332, 0.543335, 0.514282, -0.685303, -0.427246, -0.610352, -2.014160
1140352, 0.543335, 0.515869, -0.681396, 0.427246, 0.305176, -1.037598
1140372, 0.543579, 0.506714, -0.686401, 0.366211, -1.220703, -1.831055
1140392, 0.534668, 0.506836, -0.682861, -0.366211, -0.122070, -1.892090
1140412, 0.542236, 0.515625, -0.678101, -0.244141, 0.244141, -1.953125
1140432, 0.548218, 0.527466, -0.680664, 0.366211, 0.061035, -0.854492
1140452, 0.540649, 0.516724, -0.676270, 1.220703, -0.183106, 0.366211
1140472, 0.541504, 0.505737, -0.684082, 0.671387, -0.366211, 0.000000
1140492, 0.539795, 0.511230, -0.683350, 0.427246, -0.488281, -0.427246
1140512, 0.544922, 0.517212, -0.689819, 0.183106, -0.732422, -0.549316
1140532, 0.537476, 0.518066, -0.677856, 0.976563, -1.342773, -0.061035
1140552, 0.544800, 0.500732, -0.675781, 0.915528, -1.586915, -0.488281
1140572, 0.532959, 0.518921, -0.686523, 0.671387, -1.098633, -0.427246
1140592, 0.543457, 0.512329, -0.683472, 1.037598, -0.610352, 0.671387
1140612, 0.537842, 0.510010, -0.682373, 0.305176, -0.488281, -0.061035
1140632, 0.542725, 0.508667, -0.677734, 0.793457, -0.915528, -0.610352
1140652, 0.542114, 0.504272, -0.681030, 0.488281, -0.427246, -0.549316
1140672, 0.503906, 0.507324, -0.656616, 2.441406, -11.291508, 2.929688
1140692, 0.581299, 0.504639, -0.712524, 1.403809, 8.422852, 1.770020
1140712, 0.540283, 0.528442, -0.691772, -1.464844, -4.455566, -2.685547
1140732, 0.532593, 0.523071, -0.670410, 2.685547, -0.793457, 0.061035
1140752, 0.536743, 0.497803, -0.702759, 0.427246, -0.976563, 0.244141
1140772, 0.544922, 0.506226, -0.671387, -0.183106, -1.098633, -0.610352
1140792, 0.539551, 0.498413, -0.683960, -0.122070, -0.244141, -1.220703
1140812, 0.543091, 0.507935, -0.682495, -1.159668, -0.427246, -1.525879
1140832, 0.535767, 0.518066, -0.682007, -0.244141, -0.366211, -1.586915
1140852, 0.537231, 0.507446, -0.689941, -0.427246, -1.220703, -2.136230
1140872, 0.530273, 0.500854, -0.682495, -0.854492, 0.305176, -2.441406
1140892, 0.537476, 0.508179, -0.687012, -0.183106, 0.854492, -3.601075
1140912, 0.535889, 0.496826, -0.678223, 0.061035, -0.366211, -4.821777
1140932, 0.535645, 0.497437, -0.685303, -1.159668, -0.061035, -5.249023
1140952, 0.539185, 0.504272, -0.672974, -0.183106, 0.122070, -5.798342
1140972, 0.541138, 0.510864, -0.682617, 1.831055, -1.403809, -6.713869
1140992, 0.517822, 0.505737, -0.682739, 2.319336, -0.915528, -7.385256
1141012, 0.519165, 0.494629, -0.697388, 1.586915, 0.305176, -8.972168
1141032, 0.512085, 0.475708, -0.676025, -0.671387, -1.220703, -10.803223
1141052, 0.536987, 0.511719, -0.745483, -2.685547, 13.000492, -11.596684
1141072, 0.456055, 0.490723, -0.670532, -8.117676, 5.798342, -16.967773
1141092, 0.425415, 0.501343, -0.678833, -4.211426, 10.620117, -6.774904
1141112, 0.544800, 0.513916, -0.715698, -15.014652, 26.123055, -10.864258
1141132, 0.463379, 0.704346, -0.603271, -3.173829, 19.470215, 5.798342
1141152, 0.663208, 0.562012, -0.726807, 2.014160, 40.100098, 9.704590
1141172, 0.562500, 0.562378, -0.606201, -5.310059, 16.662598, 5.493164
1141192, 0.575073, 0.586426, -0.622803, -7.507326, 17.272949, 0.061035
1141212, 0.563477, 0.585449, -0.621948, -5.554201, 14.404301, -0.854492
1141232, 0.482178, 0.580933, -0.613892, -2.563477, 36.376953, 0.976563
1141252, 0.708984, 0.704468, -0.674927, -12.329105, 12.878422, -10.070801
1141272, 0.707642, 0.718506, -0.643311, -17.883301, -29.907234, -24.780281
1141292, 0.612793, 0.546875, -0.606323, -21.606445, -43.945313, -26.672371
1141312, 0.671509, 0.481201, -0.632202, -19.165039, -64.758301, -28.015144
1141332, 0.486450, 0.513428, -0.622192, -15.747074, -67.199707, -23.315437
1141352, 0.456787, 0.549927, -0.638184, -10.681152, -53.283707, -18.859863
1141372, 0.445190, 0.569824, -0.648315, -5.920412, -41.564941, -12.756351
1141392, 0.508545, 0.590698, -0.651733, -1.647950, -42.846680, -7.690432
1141412, 0.426147, 0.580688, -0.667114, 5.737307, -37.780762, -3.234864
1141432, 0.361450, 0.627319, -0.592163, 26.977547, -10.314941, 3.601075
1141452, 0.403076, 0.546265, -0.762329, 36.621094, 15.441898, 7.080080
1141472, 0.443237, 0.413696, -0.759644, 12.878422, 2.807618, -3.417970
1141492, 0.403076, 0.420166, -0.687256, -8.361816, -1.281738, -15.930180
1141512, 0.301025, 0.617554, -0.687866, -22.705086, 3.173829, -23.986824
1141532, 0.634644, 0.765137, -0.621826, -5.187988, 21.850586, 7.751467
1141552, 0.578491, 0.584106, -0.621094, -0.610352, -13.183598, -6.286623
1141572, 0.480347, 0.596680, -0.654175, 2.136230, -22.216805, -3.723145
1141592, 0.435059, 0.576294, -0.762695, -2.746582, -32.958984, -1.708985
1141612, 0.492432, 0.569580, -0.657959, -25.451668, -18.920898, 32.714844
1141632, 0.544556, 0.608887, -0.578369, -20.263672, -15.380863, 33.325195
1141652, 0.527100, 0.617188, -0.672729, -12.023930, -24.292000, 24.047859
1141672, 0.437012, 0.585571, -0.726196, -8.178711, -32.470703, 15.075687
1141692, 0.314331, 0.617310, -0.734985, -3.479005, -28.747566, 8.117676
1141712, 0.275024, 0.622070, -0.766846, -0.854492, -16.845703, 6.164553
1141732, 0.262207, 0.642822, -0.763062, 0.732422, 2.502441, 3.540040
1141752, 0.322632, 0.619263, -0.716309, 1.403809, 25.329597, 6.408693
1141772, 0.435913, 0.589600, -0.600830, 17.089844, 35.278320, 13.671879
1141792, 0.547607, 0.575928, -0.682373, 33.874512, 36.315918, 4.699707
1141812, 0.463623, 0.443848, -0.746216, 26.428230, 28.442390, 18.676758
1141832, 0.420044, 0.425781, -0.684937, 5.493164, 30.029305, 22.705086
1141852, 0.411865, 0.443115, -0.648926, -7.324221, 46.997086, 14.526371
1141872, 0.520996, 0.674805, -0.660034, -11.413578, 50.842300, 14.343266
1141952, 0.535278, 0.609863, -0.662964, -5.493164, 18.981934, 1.647950
1141972, 0.521240, 0.586060, -0.605835, -4.089355, 21.545410, 2.929688
1141992, 0.560791, 0.566406, -0.611450, 0.000000, 23.742683, 3.845216
1142012, 0.585571, 0.729736, -0.703125, -5.737307, 27.038582, -0.976563
1142032, 0.745483, 0.759033, -0.653320, -19.409180, -10.742188, -16.479492
1142052, 0.631836, 0.665527, -0.624512, -24.963387, -43.395996, -29.724129
1142072, 0.655884, 0.574951, -0.623413, -30.395515, -60.424820, -30.090340
1142092, 0.612305, 0.532715, -0.719849, -38.635254, -93.322784, -30.273445
1142112, 0.526001, 0.661011, -0.458862, -42.724609, -75.622559, -35.461426
1142132, 0.463501, 0.505249, -0.682983, -29.785164, -59.021011, -36.376953
1142152, 0.326782, 0.509521, -0.613892, -23.498543, -40.954590, -25.329597
1142172, 0.379395, 0.494263, -0.651123, -14.709476, -30.334480, -14.343266
1142192, 0.343140, 0.609009, -0.654175, -0.244141, -9.643555, -1.281738
1142212, 0.401245, 0.646973, -0.673828, -1.525879, -3.173829, 1.525879
1142232, 0.421753, 0.653442, -0.644897, -2.075195, -3.906251, 2.685547
1142252, 0.424072, 0.658325, -0.632324, -1.037598, -2.868653, 2.441406
1142272, 0.407227, 0.654785, -0.645508, 0.183106, -1.159668, 2.136230
1142292, 0.434326, 0.652222, -0.647461, -0.061035, -1.770020, 2.258301
1142312, 0.416382, 0.651001, -0.647705, 0.061035, -1.464844, 2.197266
1142332, 0.406616, 0.653198, -0.642944, 0.732422, 1.159668, 2.746582
1142352, 0.433472, 0.647949, -0.655640, 0.366211, 0.732422, 3.112794
1142372, 0.448730, 0.646118, -0.650879, -0.488281, -4.943848, 2.258301
1142392, 0.458252, 0.651245, -0.639771, 0.244141, -9.582520, 1.037598
1142412, 0.476563, 0.651733, -0.646606, 1.220703, -11.413578, -1.220703
1142432, 0.487183, 0.673096, -0.623779, 2.990724, -24.536140, -4.028320
1142452, 0.421875, 0.704102, -0.580444, 11.291508, -25.634773, -4.272461
1142472, 0.248413, 0.989014, -0.478149, 47.668472, 31.982430, 20.507813
1142492, 0.557373, 1.465820, -0.696533, 120.300323, 24.963387, 59.997574
1142512, 0.606567, 0.709595, -0.697876, 132.263184, 4.455566, 68.908691
1142532, 0.256958, 0.310669, -0.731689, 105.468781, -17.333984, 63.232437
1142552, 0.276611, 0.377197, -0.804443, 81.054688, -11.840824, 62.377945
1142572, 0.343750, 0.381592, -0.836060, 82.519531, -3.723145, 51.330582
1142592, 0.354126, 0.243164, -0.900513, 76.171875, 1.586915, 50.354019
1142612, 0.409912, 0.077026, -0.850098, 57.739273, 4.028320, 36.987305
1142632, 0.442749, 0.122437, -0.813477, 48.889175, 19.836426, 15.869144
1142652, 0.457153, 0.080200, -0.776245, 33.325195, 21.911621, -5.859377
1142672, 0.482056, -0.002563, -0.738770, 12.084965, 17.883301, -27.465828
