timestamp,ax,ay,az,gx,gy,gz
1350404, 0.746826, 0.957153, -0.453979, 101.196320, -5.493164, 68.603516
1350424, 0.656372, 0.336914, -0.604004, 95.947296, -38.208008, 70.800781
1350444, 0.457153, 0.161987, -0.668091, 41.137695, -41.931152, 44.555679
1350464, 0.446289, 0.377319, -0.732666, 32.958984, -33.386230, 27.893074
1350484, 0.386108, 0.453369, -0.843750, 34.179688, -17.456055, 28.015144
1350504, 0.348389, 0.417480, -0.868408, 29.296883, -4.516602, 34.301758
1350524, 0.401367, 0.385010, -0.821289, 25.024422, 6.408693, 36.926270
1350544, 0.484497, 0.371094, -0.789795, 25.512703, 4.211426, 31.188972
1350564, 0.477905, 0.341797, -0.789917, 26.672371, 9.155273, 29.785164
1350584, 0.516724, 0.296631, -0.790283, 23.925789, 23.803719, 31.494148
1350604, 0.584595, 0.269531, -0.774902, 21.545410, 34.179688, 25.634773
1350624, 0.651855, 0.342163, -0.790161, 16.052246, 31.860359, 15.380863
1350644, 0.677368, 0.195557, -0.716675, 28.747566, -19.226074, -18.005371
1350664, 0.377319, 0.090698, -0.695557, 15.625004, -34.240723, -36.560059
1350684, 0.298828, 0.163940, -0.724976, -7.202150, -22.521980, -44.677750
1350704, 0.316284, 0.344482, -0.691040, -27.343758, -5.432129, -35.583496
1350724, 0.488403, 0.383545, -0.627441, -34.484863, 32.165527, -15.869144
1350744, 0.788696, 0.520752, -0.708862, -35.644531, 72.448730, -2.136230
1350764, 0.959351, 0.636353, -0.619873, -23.010262, 64.819336, 6.225588
1350784, 0.949829, 0.517578, -0.536255, -2.258301, 12.512211, 0.183106
1350804, 0.613037, 0.347656, -0.631470, 2.380371, -14.526371, -15.625004
1350824, 0.607788, 0.418335, -0.785034, -6.286623, -29.418953, -19.714355
1350844, 0.470093, 0.494019, -0.818359, -3.234864, -28.503426, -17.150879
1350864, 0.413574, 0.479004, -0.811035, 1.708985, -10.742188, -7.202150
1350884, 0.492065, 0.428955, -0.787231, 1.647950, -0.488281, -1.464844
1350904, 0.478638, 0.377563, -0.744263, -2.502441, 3.845216, -1.831055
1350924, 0.534790, 0.380981, -0.705933, -5.737307, 13.122562, -0.854492
1350944, 0.615234, 0.422363, -0.683105, -4.699707, 19.958496, -0.610352
1350964, 0.619507, 0.430176, -0.673706, -3.234864, 20.812988, -1.342773
1350984, 0.659180, 0.439941, -0.676270, -2.197266, 11.962894, -1.831055
1351004, 0.639038, 0.431519, -0.680542, -1.159668, 4.821777, -3.356935
1351024, 0.591064, 0.430908, -0.699951, -1.281738, -3.479005, -5.371094
1351044, 0.570190, 0.420532, -0.705322, -1.953125, -1.037598, -4.760742
1351064, 0.576904, 0.430664, -0.706177, -2.685547, -0.305176, -7.507326
1351084, 0.583496, 0.440186, -0.701904, -1.464844, 0.549316, -8.178711
1351104, 0.571411, 0.439209, -0.700439, -1.159668, 0.305176, -7.141115
1351124, 0.552002, 0.443115, -0.700317, -1.281738, 5.493164, -4.638672
1351144, 0.582642, 0.435913, -0.689087, -1.647950, 10.742188, -2.685547
1351164, 0.614258, 0.424438, -0.680054, -2.502441, 9.460449, -3.479005
1351184, 0.610718, 0.427124, -0.681396, -3.295899, 5.126953, -6.469728
1351204, 0.604126, 0.465332, -0.684570, -3.356935, 3.417970, -5.981447
1351224, 0.601563, 0.486450, -0.685669, -1.525879, 2.380371, -3.295899
1351244, 0.595459, 0.470459, -0.681030, -0.183106, -0.671387, -1.770020
1351264, 0.588501, 0.455444, -0.685181, 0.061035, -0.854492, -0.793457
1351284, 0.589355, 0.447754, -0.685669, 0.183106, -0.549316, -1.220703
1351304, 0.590698, 0.440308, -0.687988, 0.488281, -0.732422, -2.807618
1351324, 0.583374, 0.442505, -0.683350, -0.122070, -0.488281, -2.929688
1351344, 0.590942, 0.446777, -0.683228, 0.244141, -0.366211, -2.807618
1351364, 0.589111, 0.449707, -0.687134, -0.244141, 0.488281, -3.051759
1351384, 0.596069, 0.459839, -0.683594, -0.427246, -15.563969, -2.685547
1351404, 0.584106, 0.450562, -0.680420, 0.061035, -0.366211, -3.784181
1351424, 0.578247, 0.442505, -0.681152, -0.793457, -0.854492, -4.272461
1351444, 0.582764, 0.447876, -0.689331, -1.464844, -0.549316, -7.141115
1351464, 0.573853, 0.465332, -0.689941, -2.136230, -1.159668, -7.873537
1351484, 0.579834, 0.482544, -0.689575, -1.281738, -1.342773, -6.835939
1351504, 0.581299, 0.474243, -0.681641, -0.549316, -0.305176, -5.004883
1351524, 0.581909, 0.464478, -0.677246, -1.098633, -0.732422, -3.906251
1351544, 0.582153, 0.453979, -0.675537, -1.647950, -0.366211, -4.211426
1351564, 0.578857, 0.464233, -0.675659, -1.342773, -1.098633, -5.187988
1351584, 0.572144, 0.483521, -0.689697, -0.366211, -0.732422, -4.028320
1351604, 0.571289, 0.477295, -0.683960, -0.122070, -0.305176, -2.685547
1351624, 0.573853, 0.469238, -0.675171, 0.061035, -0.915528, -2.624512
1351644, 0.580322, 0.467285, -0.688965, -0.732422, -0.488281, -3.479005
1351664, 0.574585, 0.477905, -0.675781, -0.854492, -0.427246, -2.258301
1351684, 0.583862, 0.489258, -0.684082, 0.183106, -0.610352, -1.403809
1351704, 0.575317, 0.486084, -0.680298, 0.671387, -0.366211, 0.305176
1351724, 0.580566, 0.473267, -0.675537, 1.220703, -0.488281, 1.159668
1351744, 0.570801, 0.461670, -0.680176, 0.427246, -0.366211, 0.488281
1351764, 0.578613, 0.466064, -0.677734, -0.366211, -0.305176, -0.854492
1351784, 0.578613, 0.474243, -0.681641, 0.305176, -0.427246, -1.831055
1351804, 0.571167, 0.471558, -0.684937, -0.671387, -0.854492, -1.037598
1351824, 0.579712, 0.481079, -0.675903, 0.000000, -1.037598, -0.854492
1351864, 0.570801, 0.464966, -0.682983, -1.647950, -0.305176, -2.319336
1351884, 0.575806, 0.479004, -0.678101, -1.403809, -0.976563, -3.356935
1351904, 0.571655, 0.496338, -0.687012, -0.244141, -1.342773, -2.685547
1351924, 0.574585, 0.485107, -0.683228, 0.366211, -1.037598, -1.098633
1351944, 0.571045, 0.459351, -0.674194, -0.122070, -0.549316, -0.915528
1351984, 0.562012, 0.464844, -0.666504, -2.990724, 3.845216, -3.784181
1352004, 0.578979, 0.491943, -0.675293, -1.403809, 2.807618, -4.272461
1352024, 0.570557, 0.473999, -0.687744, -3.173829, -0.244141, -4.821777
1352044, 0.546143, 0.455811, -0.665771, -4.516602, 3.906251, -4.211426
1352064, 0.587402, 0.431519, -0.660278, -4.699707, 4.882813, -7.385256
1352084, 0.551025, 0.452393, -0.668823, -7.507326, 1.586915, -11.108402
1352104, 0.555908, 0.504761, -0.684570, -9.704590, 4.150391, -10.620117
1352144, 0.564209, 0.583252, -0.673584, -8.544922, 7.080080, 0.244141
1352164, 0.586182, 0.517334, -0.660278, -1.892090, 5.249023, -0.305176
1352184, 0.556396, 0.486328, -0.647217, -4.638672, 6.164553, -1.464844
1352204, 0.607422, 0.490356, -0.628784, -5.554201, 8.789063, -0.915528
1352224, 0.611206, 0.512085, -0.630981, -2.441406, 5.920412, -2.746582
1352244, 0.580933, 0.518066, -0.651855, -2.075195, 3.601075, -3.356935
1352264, 0.572144, 0.521362, -0.647461, -1.953125, 5.798342, -1.464844
1352284, 0.599609, 0.503052, -0.645264, -1.342773, 4.638672, -1.647950
1352304, 0.579346, 0.498901, -0.637573, -0.488281, 1.525879, -2.014160
1352324, 0.573120, 0.492798, -0.643188, -0.122070, 1.220703, -4.943848
1352384, 0.560303, 0.527222, -0.641357, -7.507326, 17.822266, -0.427246
1352404, 0.618286, 0.565552, -0.621582, -7.812502, 15.502934, 0.183106
1352424, 0.623291, 0.566162, -0.614990, -1.403809, 10.070801, 1.647950
1352444, 0.663086, 0.530884, -0.620728, -0.976563, 2.136230, -0.610352
1352464, 0.583252, 0.531860, -0.598999, -1.586915, -4.577637, -1.770020
1352484, 0.593872, 0.554565, -0.631714, -2.502441, -4.882813, -2.990724
1352504, 0.581421, 0.558716, -0.633301, -3.479005, -2.746582, -3.112794
1352524, 0.559814, 0.547974, -0.610596, -2.319336, 2.319336, 0.183106
1352544, 0.497925, 0.573242, -0.617676, -1.281738, 14.099125, 3.051759
1352604, 0.670776, 0.586914, -0.612183, -17.333984, -18.493652, -17.272949
1352624, 0.592773, 0.503418, -0.569824, -14.709476, -23.681648, -14.953617
1352644, 0.613892, 0.486938, -0.603638, -13.427738, -23.376472, -11.779789
1352664, 0.605591, 0.534912, -0.610718, -10.253906, -27.832039, -10.314941
1352684, 0.579834, 0.498413, -0.617676, -9.826660, -28.930672, -7.385256
1352704, 0.552002, 0.499878, -0.575684, -3.906251, -21.789551, -4.699707
1352724, 0.558716, 0.569824, -0.634644, 0.000000, -14.221195, -2.136230
1352744, 0.587646, 0.574951, -0.612183, -0.305176, -18.310547, -2.014160
1352764, 0.581299, 0.586060, -0.589233, 1.586915, -30.395515, -4.211426
1352784, 0.529785, 0.575439, -0.640991, 2.929688, -31.066902, -4.028320
1352804, 0.463013, 0.553223, -0.654663, 0.976563, -28.015144, -2.441406
1352824, 0.486938, 0.562378, -0.642456, -17.761230, -2.136230, 17.272949
1352844, 0.610474, 0.597534, -0.554321, -18.981934, 2.380371, 20.263672
1352864, 0.593628, 0.574707, -0.608521, -11.474613, -4.394531, 12.573246
1352884, 0.568237, 0.576172, -0.651611, -8.239746, -14.892582, 7.812502
1352904, 0.503296, 0.582397, -0.661865, -5.615236, -16.662598, 2.685547
1352924, 0.459351, 0.575928, -0.666382, -0.793457, -8.850098, 2.624512
1352944, 0.503662, 0.561401, -0.696411, -0.366211, -4.272461, 0.854492
1352964, 0.524292, 0.537109, -0.668091, -3.417970, -3.723145, 0.000000
1352984, 0.516846, 0.539185, -0.587769, 0.000000, 0.305176, 5.798342
1353004, 0.536499, 0.547729, -0.614258, 5.187988, 5.371094, 9.399414
1353024, 0.544189, 0.568481, -0.649170, 5.981447, 6.835939, 8.056641
1353044, 0.519775, 0.545532, -0.632935, 6.896975, 9.643555, 6.652834
1353064, 0.526123, 0.571045, -0.645020, 8.728027, 12.023930, 5.981447
1353084, 0.538818, 0.556030, -0.647095, 8.972168, 14.160160, 6.652834
1353104, 0.535645, 0.595459, -0.633301, 4.943848, 12.817387, 5.798342
1353124, 0.571411, 0.593262, -0.636597, 2.563477, 10.437012, 3.784181
1353144, 0.560425, 0.587524, -0.618896, 1.464844, 6.591799, 2.075195
1353164, 0.566162, 0.575684, -0.637207, -0.061035, 4.882813, 0.488281
1353204, 0.527710, 0.561035, -0.609375, 1.525879, 11.352543, 2.380371
1353224, 0.533325, 0.558716, -0.632813, 1.708985, 16.418457, 4.516602
1353244, 0.554565, 0.626709, -0.657349, -1.342773, 22.155769, 4.821777
1353264, 0.655884, 0.646118, -0.656250, -14.221195, 10.559082, -1.586915
1353284, 0.658813, 0.602661, -0.581177, -16.784668, -13.854984, -9.399414
1353304, 0.585815, 0.566772, -0.615845, -17.639160, -15.991215, -10.375977
1353324, 0.577515, 0.565674, -0.646240, -19.897461, -18.737793, -11.657719
1353344, 0.561035, 0.553345, -0.616089, -21.850586, -19.714355, -10.559082
1353364, 0.556763, 0.559326, -0.621094, -21.789551, -21.362305, -9.155273
1353384, 0.498901, 0.564941, -0.614502, -21.484375, -19.226074, -6.164553
1353404, 0.534912, 0.602173, -0.649048, -22.583015, -14.465336, -4.394531
1353424, 0.547974, 0.598511, -0.575439, -23.315437, -13.244633, -5.554201
1353444, 0.594727, 0.705200, -0.444702, -20.385742, 9.399414, -15.502934
1353464, 0.561279, 0.500732, -0.759644, -17.517090, -28.259285, -8.850098
1353484, 0.580933, 0.638184, -0.476074, -5.065918, 5.493164, -17.578125
1353504, 0.510498, 0.591431, -0.686646, -11.108402, -23.437508, -9.765625
1353524, 0.501953, 0.588379, -0.540039, -2.441406, -13.183598, -7.080080
1353544, 0.515991, 0.597900, -0.599609, 0.915528, -16.845703, -4.333496
1353564, 0.492676, 0.627197, -0.649048, -1.342773, -15.014652, -3.906251
1353584, 0.466309, 0.646973, -0.584717, -2.807618, -14.648441, -2.624512
1353604, 0.426392, 0.647949, -0.591797, -0.549316, -4.394531, -0.549316
1353624, 0.497192, 0.644165, -0.598999, 0.000000, 1.220703, 0.732422
1353644, 0.499512, 0.646118, -0.598267, 0.488281, 0.671387, 0.061035
1353664, 0.499756, 0.647705, -0.588989, 2.441406, -0.671387, 0.183106
1353684, 0.496582, 0.677002, -0.594482, 4.394531, -0.244141, 0.122070
1353704, 0.504150, 0.704468, -0.579834, 10.742188, 2.746582, 3.234864
1353724, 0.560791, 0.715698, -0.597534, 18.493652, 9.094238, 3.295899
1353744, 0.596191, 0.978882, -0.326294, 75.073242, 2.258301, 32.104492
1353764, 0.636108, 0.658569, -0.611816, 101.135284, -1.525879, 44.799820
1353784, 0.567993, 0.395264, -0.806763, 57.739273, -14.465336, 35.949707
1353804, 0.530518, 0.394287, -0.652466, 25.451668, -31.127937, 18.066406
1353824, 0.492188, 0.489502, -0.644043, 24.902351, -35.766602, 6.103518
1353844, 0.479248, 0.539551, -0.772827, 26.367195, -35.400391, 1.647950
1353864, 0.414185, 0.567993, -0.752563, 23.376472, -27.221687, 11.413578
