timestamp,ax,ay,az,gx,gy,gz
1106414, 0.253296, 0.980713, -0.075073, -25.756844, -5.249023, -25.634773
1106434, 0.208252, 0.987427, -0.032837, -14.282230, -8.850098, -22.460945
1106454, 0.195557, 0.983398, -0.081055, 1.281738, -6.164553, -16.967773
1106474, 0.176636, 0.980835, -0.114746, 8.117676, -4.943848, -12.695316
1106494, 0.161743, 0.964722, -0.158447, 11.718754, -3.051759, -7.507326
1106514, 0.167725, 0.958618, -0.194336, 12.573246, -0.488281, -2.319336
1106534, 0.185791, 0.950439, -0.232056, 10.314941, 2.136230, 1.525879
1106554, 0.198364, 0.946899, -0.240234, 6.958010, 4.394531, 4.089355
1106574, 0.226196, 0.947144, -0.241943, 2.807618, 4.699707, 5.859377
1106594, 0.245117, 0.950806, -0.218262, 0.183106, 3.906251, 5.859377
1106614, 0.271729, 0.950073, -0.217651, -1.525879, 2.319336, 4.455566
1106634, 0.279297, 0.954102, -0.201538, -2.929688, 0.610352, 1.464844
1106654, 0.279907, 0.957397, -0.182739, -2.258301, -2.441406, -2.563477
1106674, 0.262573, 0.953613, -0.205322, -2.502441, -3.601075, -5.371094
1106694, 0.226074, 0.957153, -0.196167, -3.173829, -3.417970, -5.615236
1106714, 0.210083, 0.957397, -0.194214, -3.295899, -2.136230, -3.967286
1106734, 0.223633, 0.954590, -0.205933, -4.394531, -0.732422, -2.990724
1106754, 0.225342, 0.958130, -0.190430, -4.943848, -0.122070, -2.380371
1106774, 0.242554, 0.961304, -0.183228, -5.065918, -0.671387, -2.746582
1106794, 0.223145, 0.966064, -0.165527, -4.089355, -1.159668, -2.929688
1106814, 0.224365, 0.962891, -0.177734, -2.563477, -0.732422, -2.075195
1106834, 0.243652, 0.958862, -0.190186, -3.967286, -1.586915, -2.990724
1106854, 0.227051, 0.965576, -0.163574, -3.601075, -2.929688, -3.417970
1106874, 0.219238, 0.965576, -0.164551, -2.258301, -2.014160, -2.990724
1106894, 0.222656, 0.966187, -0.164917, -1.159668, -1.770020, -2.929688
1106914, 0.222046, 0.964966, -0.167847, -0.122070, -2.624512, -2.502441
1106934, 0.219116, 0.964722, -0.175781, 0.244141, -2.624512, -2.319336
1106954, 0.219971, 0.963745, -0.177124, 0.183106, -2.136230, -2.014160
1106974, 0.216919, 0.963257, -0.179199, 0.183106, -2.197266, -1.953125
1106994, 0.209351, 0.963623, -0.180420, -0.061035, -2.014160, -1.220703
1107014, 0.211670, 0.964844, -0.176758, -0.183106, -2.868653, -0.061035
1107034, 0.216187, 0.961670, -0.183838, -0.610352, -4.333496, 0.915528
1107054, 0.218018, 0.963013, -0.182007, -1.159668, -1.770020, 0.488281
1107074, 0.214600, 0.963501, -0.174927, -1.342773, -0.488281, 0.549316
1107094, 0.225586, 0.967041, -0.165527, -0.549316, -0.976563, 0.854492
1107114, 0.224854, 0.965820, -0.166260, 0.000000, -1.892090, 0.488281
1107134, 0.229614, 0.968994, -0.171143, 0.793457, -3.601075, 0.488281
1107154, 0.219238, 0.958252, -0.185181, 0.305176, -5.798342, 0.610352
1107174, 0.202881, 0.968506, -0.164429, 0.427246, -6.225588, 1.525879
1107194, 0.186523, 0.968506, -0.164429, 1.770020, -6.042482, 4.089355
1107214, 0.200928, 0.963867, -0.184204, 2.014160, -2.563477, 7.812502
1107234, 0.236084, 0.962769, -0.192383, 1.281738, -3.051759, 8.483887
1107254, 0.238281, 0.959839, -0.196289, -0.183106, -6.774904, 8.605957
1107274, 0.220093, 0.973389, -0.168945, -0.183106, -5.676271, 8.544922
1107294, 0.202271, 1.000000, -0.126587, 3.662110, 1.708985, 10.070801
1107314, 0.307251, 1.108765, 0.052490, 31.188972, -19.836426, 9.948730
1107334, 0.209717, 1.235596, -0.037476, 78.857422, -43.884277, 14.465336
1107354, 0.236694, 1.109131, -0.375488, 96.801788, -40.405273, 18.615723
1107374, 0.287964, 0.964722, -0.575073, 96.130402, -18.554688, -2.319336
1107394, 0.177612, 0.859863, -0.792847, 76.293945, -11.230473, -25.085457
1107414, 0.036011, 0.722534, -0.687378, 45.837418, -1.220703, -33.630371
1107434, -0.043823, 0.645630, -0.604736, 33.752441, 10.559082, -31.066902
1107454, -0.061890, 0.547485, -0.568237, 17.822266, 32.775879, -24.414070
1107474, -0.022095, 0.595825, -0.494873, -1.525879, 51.940933, -14.465336
1107494, -0.004150, 0.745117, -0.347290, -17.150879, 61.584488, -0.122070
1107514, 0.086792, 0.869995, -0.161011, -21.118164, 69.152832, 22.277840
1107534, 0.268921, 0.916260, -0.053833, -13.916019, 77.209473, 40.954590
1107554, 0.441162, 0.878296, -0.053833, -11.047363, 81.970215, 45.288101
1107574, 0.580078, 0.794312, -0.089233, -19.775391, 72.631836, 37.414551
1107594, 0.594971, 0.967896, -0.146606, -46.936050, 34.484863, 28.381355
1107614, 0.838135, 1.474854, -0.227661, -61.767593, -1.647950, 16.662598
1107634, 0.797852, 1.055420, 0.077148, -45.715347, -25.573738, -22.460945
1107654, 0.641602, 0.984985, 0.222778, -13.793949, -53.833023, -58.288589
1107674, 0.165161, 0.979980, -0.036865, 17.578125, -53.527847, -70.251465
1107694, -0.234619, 0.890747, -0.405762, 7.019045, -47.119156, -34.301758
1107714, -0.010742, 0.929932, -0.321167, -1.342773, -16.174316, -12.695316
1107734, -0.025513, 0.943237, -0.296143, -3.967286, -2.075195, 7.568361
1107754, 0.083130, 0.932861, -0.319336, -3.845216, 7.446291, 23.315437
1107774, 0.228271, 0.918701, -0.333374, -11.779789, 13.183598, 29.785164
1107794, 0.319458, 0.935303, -0.233032, -15.380863, 11.657719, 28.198250
1107814, 0.390381, 0.939209, -0.200928, -13.244633, 8.850098, 22.216805
1107834, 0.429443, 0.940674, -0.186768, -10.192871, 4.699707, 12.634281
1107854, 0.401123, 0.943481, -0.178101, -6.652834, -3.051759, 3.784181
1107874, 0.367920, 0.943115, -0.187134, -2.990724, -9.704590, -1.342773
1107894, 0.359375, 0.939087, -0.204834, -0.854492, -9.216309, -7.446291
1107914, 0.313477, 0.932617, -0.225220, 0.244141, -7.934572, -11.047363
1107934, 0.282227, 0.928223, -0.255981, -1.525879, -9.704590, -11.291508
1107954, 0.231567, 0.935547, -0.244141, -3.784181, -10.009766, -8.972168
1107974, 0.189453, 0.942627, -0.227905, -4.089355, -2.014160, 0.122070
1107994, 0.221558, 0.938965, -0.228149, -4.150391, 4.760742, 4.821777
1108014, 0.270508, 0.931641, -0.245972, -5.554201, 6.164553, 7.446291
1108034, 0.275391, 0.929321, -0.252686, -8.300781, 6.286623, 8.056641
1108054, 0.268799, 0.927979, -0.257568, -11.596684, 8.361816, 8.972168
1108074, 0.237061, 0.931763, -0.234497, -15.014652, 11.779789, 11.291508
1108094, 0.208618, 0.934570, -0.218018, -16.113281, 19.042969, 16.662598
1108114, 0.420166, 1.040405, -0.127075, -7.568361, 8.178711, 8.361816
1108134, 0.266968, 1.007935, -0.157715, 18.249512, 0.488281, -16.723633
1108154, 0.235352, 0.929688, -0.322998, 19.470215, 4.150391, -24.902351
1108174, 0.128784, 0.909790, -0.384766, 0.915528, 14.587406, -13.183598
1108194, 0.150635, 0.988892, -0.265015, 1.708985, 18.127441, -13.977055
1108214, 0.013794, 0.949219, -0.285645, 4.882813, 32.165527, -14.953617
1108234, -0.036133, 0.984375, -0.260620, -0.793457, 47.912613, -1.037598
1108254, 0.091187, 1.000854, -0.133789, 6.896975, 57.617203, 6.225588
1108274, 0.334229, 0.927002, -0.142334, 12.878422, 66.345215, 12.939457
1108294, 0.568359, 0.932617, -0.185303, 10.742188, 56.701675, 3.356935
1108314, 0.570313, 0.938477, -0.137573, 11.901859, 36.743164, -19.531250
1108334, 0.375610, 0.893188, -0.118164, 7.507326, 25.573738, -24.353035
1108354, 0.308594, 0.900757, -0.006226, -2.807618, 25.939949, 1.953125
1108374, 0.443359, 0.913940, 0.031128, -4.089355, 23.986824, 17.333984
1108394, 0.544678, 0.931641, 0.052368, 1.098633, 12.268070, 16.784668
1108414, 0.598755, 0.977417, 0.006714, 10.253906, -1.159668, 8.422852
1108434, 0.566528, 0.944580, -0.078247, 21.972656, -14.892582, -13.244633
1108454, 0.406982, 0.921265, -0.213745, 23.864754, -21.240234, -26.733406
1108474, 0.240356, 0.909180, -0.326416, 16.479492, -21.789551, -28.198250
1108494, 0.116821, 0.910278, -0.343628, 5.065918, -15.747074, -19.348145
1108514, 0.110962, 0.919678, -0.312256, -4.577637, -4.455566, -6.896975
1108534, 0.170776, 0.937622, -0.242432, -10.559082, 4.638672, 2.136230
1108554, 0.273560, 0.960815, -0.138672, -6.774904, 7.263186, 7.995607
1108574, 0.344360, 0.962524, -0.129639, -0.915528, 4.577637, 5.371094
1108594, 0.355835, 0.954590, -0.152344, 3.723145, -0.305176, -0.366211
1108614, 0.309448, 0.945190, -0.189331, 5.859377, -4.455566, -4.089355
1108634, 0.261230, 0.943115, -0.216309, 5.249023, -3.540040, -3.967286
1108654, 0.269287, 0.937256, -0.235596, 3.479005, -0.793457, -3.173829
1108674, 0.292603, 0.931152, -0.248047, 0.244141, 0.000000, -3.784181
1108694, 0.302368, 0.935181, -0.240112, -3.540040, -1.220703, -5.859377
1108714, 0.284180, 0.947021, -0.202271, -4.882813, -1.770020, -7.324221
1108734, 0.249023, 0.958740, -0.155151, -1.770020, -0.671387, -6.835939
1108754, 0.273560, 0.960327, -0.157959, 2.380371, 0.427246, -6.347658
1108774, 0.307129, 0.952271, -0.180420, 4.821777, -0.122070, -8.422852
1108794, 0.340820, 0.946411, -0.206177, 5.371094, -3.295899, -13.305668
1108814, 0.357910, 0.937134, -0.241821, 3.356935, -8.239746, -20.019531
1108834, 0.373169, 0.937256, -0.245728, -0.427246, -14.221195, -28.503426
1108854, 0.359009, 0.928955, -0.261353, -4.638672, -24.597176, -36.804199
1108874, 0.243164, 0.910645, -0.208740, -6.896975, -25.329597, -34.484863
1108894, 0.140747, 0.911865, -0.187012, -4.333496, -8.056641, -7.385256
1108914, 0.269043, 0.913086, -0.182617, -2.746582, 9.948730, 30.700691
1108934, 0.401489, 0.931030, -0.174683, -2.014160, 5.798342, 23.071297
1108954, 0.491821, 0.935181, -0.200806, -4.760742, -11.596684, 15.808109
1108974, 0.456299, 0.945801, -0.206299, -6.469728, -26.245125, 0.244141
1108994, 0.271973, 0.936646, -0.182373, -5.798342, -31.982430, -4.333496
1109014, 0.158936, 0.962646, -0.177612, -2.746582, -30.639656, 1.525879
1109034, 0.076050, 0.951416, -0.205200, -5.432129, -15.869144, 9.704590
1109054, 0.101318, 0.974365, -0.208984, -5.310059, -9.277344, 16.662598
1109074, 0.165894, 0.982178, -0.255859, -7.019045, -10.742188, 12.268070
1109094, 0.140015, 0.986084, -0.249878, -8.911133, -15.014652, 1.953125
1109114, 0.059814, 0.998291, -0.220581, -7.385256, -16.174316, -3.234864
1109134, 0.033203, 0.999146, -0.195435, -6.164553, -10.986328, -4.211426
1109154, 0.003784, 1.000122, -0.176514, -5.859377, -4.028320, 0.366211
1109174, 0.033813, 0.992554, -0.185669, -7.446291, 4.516602, 5.554201
1109194, 0.108398, 0.983887, -0.148926, -12.634281, 9.704590, 6.347658
1109214, 0.113403, 1.020630, 0.005005, -5.676271, 5.065918, 14.953617
1109234, 0.134033, 1.001709, 0.009521, 12.146000, 8.056641, 25.390633
1109254, 0.243042, 0.972778, -0.074463, 23.925789, 13.793949, 28.686531
1109274, 0.282593, 0.954712, -0.122314, 30.273445, 9.338379, 28.259285
1109294, 0.267822, 0.949219, -0.154297, 34.851074, 7.568361, 28.320320
1109314, 0.418457, 0.901123, -0.425781, 13.122562, 13.427738, 14.099125
1109334, 0.403564, 0.935913, -0.295044, -6.591799, -1.403809, -1.953125
1109354, 0.267334, 0.962646, -0.158813, -8.178711, -16.235352, -4.455566
1109374, 0.237061, 0.950073, -0.163330, -5.126953, -10.925293, -4.211426
1109394, 0.229370, 0.973145, -0.098145, 0.366211, -6.713869, -0.610352
1109414, 0.262939, 0.947754, -0.187134, 4.516602, -3.479005, 2.380371
1109434, 0.321533, 0.953613, -0.213013, -1.159668, -5.615236, -2.685547
1109454, 0.246948, 0.958740, -0.145020, -2.563477, -10.620117, -5.065918
1109474, 0.195435, 0.973145, -0.135864, 4.882813, -11.535648, 0.610352
1109494, 0.226318, 0.961792, -0.177368, 5.187988, -2.624512, 3.723145
1109514, 0.245239, 0.949829, -0.202271, 4.516602, -0.915528, 5.554201
1109534, 0.268799, 0.950195, -0.204956, 3.906251, -1.647950, 5.737307
1109554, 0.280396, 0.953979, -0.197266, 2.807618, -2.868653, 3.967286
1109574, 0.273315, 0.953857, -0.177979, 2.380371, -4.028320, 2.685547
1109594, 0.265869, 0.947510, -0.176147, 6.042482, -4.028320, 5.737307
1109614, 0.338257, 0.931152, -0.208374, 5.371094, -3.173829, 3.845216
1109634, 0.307739, 0.938110, -0.221680, 7.934572, -8.300781, 2.685547
1109654, 0.316772, 0.927002, -0.219604, 8.178711, -8.544922, 0.976563
1109674, 0.257080, 0.918701, -0.230835, 13.366703, -3.295899, 7.751467
1109694, 0.362427, 0.885864, -0.353516, 6.042482, 1.770020, 3.540040
1109714, 0.346802, 0.910400, -0.259277, 7.080080, -8.666992, 4.516602
1109734, 0.360596, 0.889404, -0.339844, 6.896975, -7.263186, 5.249023
1109754, 0.364380, 0.873657, -0.367554, 2.502441, -4.455566, 2.868653
1109774, 0.348755, 0.896851, -0.314209, 1.159668, -6.652834, 1.953125
1109794, 0.362549, 0.879639, -0.358765, -0.793457, -4.272461, 1.403809
1109814, 0.354004, 0.889038, -0.308472, -2.441406, -1.953125, -1.098633
1109834, 0.332275, 0.883301, -0.340210, -0.915528, 1.586915, 1.220703
1109854, 0.346313, 0.901001, -0.314697, -2.929688, 2.441406, 0.183106
1109874, 0.331665, 0.899292, -0.300659, -3.051759, 4.455566, 0.610352
1109894, 0.329712, 0.908936, -0.285400, -2.380371, 7.324221, 0.488281
1109914, 0.358887, 0.906616, -0.290283, -3.662110, 6.896975, -0.793457
1109934, 0.365845, 0.917236, -0.268677, -5.798342, 1.953125, -3.906251
1109954, 0.344727, 0.926514, -0.233643, -6.652834, -1.342773, -7.263186
1109974, 0.315674, 0.936279, -0.204224, -4.150391, -2.929688, -8.666992
1109994, 0.309326, 0.929810, -0.230103, -2.136230, -4.089355, -9.094238
1110014, 0.295776, 0.930298, -0.238403, -2.502441, -5.554201, -9.338379
1110034, 0.257202, 0.937134, -0.223145, -1.525879, -4.882813, -7.751467
1110054, 0.249878, 0.935547, -0.229004, 0.366211, -1.586915, -3.356935
1110074, 0.299561, 0.930542, -0.244141, 0.244141, -1.220703, -3.173829
1110094, 0.291748, 0.938721, -0.219482, 0.732422, -2.441406, -4.089355
1110114, 0.275635, 0.934082, -0.236938, 2.258301, -1.770020, -3.662110
1110134, 0.273804, 0.931519, -0.251099, 1.098633, -1.220703, -2.929688
1110154, 0.269287, 0.932129, -0.250000, 0.488281, -1.586915, -1.342773
1110174, 0.275391, 0.935425, -0.237305, 0.061035, -1.831055, -0.488281
1110194, 0.297852, 0.931030, -0.252441, -0.122070, -2.563477, -0.061035
1110214, 0.307495, 0.927490, -0.258057, -1.831055, -4.699707, -1.831055
1110234, 0.297485, 0.931274, -0.249390, -2.990724, -6.347658, -2.807618
1110254, 0.272583, 0.934692, -0.242920, -3.845216, -5.676271, -3.967286
1110274, 0.268555, 0.935547, -0.246460, -4.211426, -4.028320, -3.295899
1110294, 0.268066, 0.928345, -0.250977, -5.371094, -5.615236, -2.441406
