timestamp,ax,ay,az,gx,gy,gz
1117474, 0.269043, 0.967651, -0.152344, -2.197266, 2.258301, -1.525879
1117494, 0.247559, 0.981201, -0.122437, -0.610352, -1.281738, -4.577637
1117514, 0.214722, 0.974121, -0.124390, 2.563477, -3.967286, -5.432129
1117534, 0.175781, 0.976685, -0.132080, 5.126953, -5.615236, -3.906251
1117554, 0.159668, 0.974121, -0.156616, 6.347658, -3.295899, -0.732422
1117574, 0.153687, 0.965820, -0.176758, 6.347658, -2.075195, 3.356935
1117594, 0.172974, 0.959961, -0.200073, 3.845216, 0.000000, 6.896975
1117614, 0.180908, 0.961548, -0.186523, 1.708985, 1.281738, 9.216309
1117634, 0.220459, 0.965820, -0.171997, 0.854492, 3.051759, 10.009766
1117654, 0.246704, 0.965210, -0.160400, 0.427246, 2.441406, 7.934572
1117674, 0.248535, 0.966675, -0.151611, 1.464844, 0.671387, 5.981447
1117694, 0.238281, 0.968140, -0.154663, 2.563477, 0.061035, 4.638672
1117714, 0.236816, 0.964355, -0.164551, 3.295899, -0.488281, 3.784181
1117734, 0.235596, 0.961670, -0.173584, 3.173829, -1.342773, 3.540040
1117754, 0.225098, 0.962524, -0.172241, 2.502441, -1.403809, 3.356935
1117774, 0.221069, 0.963867, -0.162109, 3.234864, -0.915528, 3.967286
1117794, 0.223511, 0.958252, -0.183472, 2.990724, 0.793457, 4.699707
1117814, 0.243530, 0.959106, -0.180420, 2.075195, 0.122070, 4.699707
1117834, 0.250000, 0.960938, -0.165039, 1.953125, -0.549316, 3.906251
1117854, 0.254395, 0.960327, -0.171265, 2.563477, -0.244141, 2.563477
1117874, 0.257690, 0.958252, -0.183594, 2.136230, -0.793457, 1.281738
1117894, 0.238647, 0.957520, -0.180176, 1.403809, -0.610352, 0.488281
1117914, 0.227173, 0.960327, -0.170166, 1.647950, 0.488281, 1.098633
1117934, 0.233154, 0.961182, -0.170044, 2.197266, 1.403809, 1.953125
1117954, 0.242798, 0.958984, -0.175903, 2.502441, 1.831055, 2.014160
1117974, 0.248413, 0.958740, -0.177734, 2.441406, 2.441406, 1.708985
1117994, 0.254639, 0.959961, -0.170654, 2.624512, 1.464844, 1.098633
1118014, 0.263062, 0.961426, -0.164673, 3.845216, -1.831055, 0.488281
1118034, 0.255005, 0.960083, -0.170044, 4.638672, -1.953125, -1.037598
1118054, 0.254639, 0.966919, -0.162842, 6.286623, 0.000000, -2.563477
1118074, 0.222046, 0.969727, -0.147217, 8.605957, 2.868653, -3.051759
1118094, 0.202637, 0.976563, -0.123047, 13.366703, 7.995607, -1.098633
1118114, 0.225464, 0.975830, -0.134399, 18.798828, 13.977055, 0.610352
1118134, 0.275635, 0.976685, -0.154419, 23.376472, 14.282230, -0.427246
1118154, 0.290405, 0.966553, -0.183105, 26.184090, 11.718754, -2.441406
1118174, 0.280396, 0.951294, -0.187866, 29.907234, 14.160160, -1.159668
1118194, 0.259399, 0.989258, -0.128296, 44.006348, 9.704590, 7.751467
1118214, 0.255127, 1.027588, -0.286377, 63.415543, -0.610352, 11.291508
1118234, 0.257935, 0.961060, -0.415283, 58.166519, 2.807618, 5.187988
1118254, 0.263184, 0.907837, -0.492554, 42.175293, 8.850098, -6.225588
1118274, 0.256592, 0.913696, -0.472900, 32.165527, 10.498047, -16.052246
1118294, 0.231323, 0.880737, -0.431641, 30.090340, 3.234864, -27.038582
1118314, 0.210571, 0.841064, -0.437012, 30.273445, -3.356935, -33.630371
1118334, 0.143066, 0.788208, -0.517578, 22.766121, -5.737307, -39.428711
1118354, 0.032715, 0.749878, -0.564331, 5.004883, -1.525879, -34.423828
1118374, -0.022095, 0.773804, -0.463379, -11.779789, 10.925293, -20.690918
1118394, -0.050415, 0.841675, -0.332397, -15.380863, 27.832039, -2.319336
1118414, -0.012573, 0.947876, -0.245239, -5.554201, 66.162109, 28.320320
1118434, 0.137329, 0.980103, -0.226685, 4.333496, 89.477570, 44.372574
1118454, 0.311768, 0.971191, -0.193726, 15.319828, 102.966339, 44.860855
1118474, 0.446411, 0.932373, -0.230347, 19.531250, 107.482941, 34.790039
1118494, 0.447021, 0.908203, -0.292480, 13.671879, 91.918976, 26.489265
1118514, 0.461182, 0.870728, -0.318359, -2.258301, 72.082520, 22.460945
1118534, 0.467163, 0.817749, -0.247437, -20.080566, 52.551285, 17.578125
1118554, 0.435547, 0.925171, -0.158325, -26.367195, 42.358398, 14.892582
1118574, 0.424805, 0.975952, -0.054199, -15.869144, 38.452148, 12.451176
1118594, 0.382446, 0.899902, -0.019409, 11.413578, 28.991707, 9.887695
1118614, 0.385620, 0.871460, -0.190918, 13.549809, 17.333984, 17.211914
1118634, 0.445068, 0.932739, -0.303589, 3.845216, 9.948730, 15.625004
1118654, 0.466797, 0.873291, -0.287964, -1.953125, -0.549316, 7.263186
1118674, 0.462769, 0.907104, -0.264404, -4.089355, -18.554688, 0.793457
1118694, 0.496826, 0.916138, -0.244263, -3.540040, -47.668472, -5.798342
1118714, 0.497681, 0.878662, -0.256470, -4.211426, -73.486328, -10.986328
1118734, 0.475708, 0.906616, -0.291992, -8.422852, -88.012695, -14.038090
1118754, 0.442383, 0.944214, -0.276245, -10.986328, -92.590363, -13.793949
1118774, 0.362305, 0.928345, -0.237305, -9.887695, -82.458496, -12.268070
1118794, 0.228882, 0.936646, -0.191772, -1.586915, -56.091324, -6.408693
1118814, 0.201904, 0.904541, -0.252319, 2.563477, -32.226563, -4.272461
1118834, 0.225464, 0.881714, -0.309082, 1.892090, -7.507326, -0.305176
1118854, 0.246582, 0.912109, -0.321411, -3.417970, 13.793949, 5.310059
1118874, 0.266479, 0.894531, -0.283447, -7.507326, 16.235352, 13.854984
1118894, 0.322632, 0.845581, -0.260742, -8.483887, 12.268070, 18.920898
1118914, 0.421387, 0.831055, -0.287720, -7.629396, -12.207035, 20.141602
1118934, 0.435791, 0.858398, -0.346313, -9.887695, -34.118652, 12.329105
1118954, 0.394531, 0.857056, -0.375488, -16.662598, -56.213394, 2.319336
1118974, 0.318115, 0.899658, -0.369629, -25.268562, -73.669434, -7.080080
1118994, 0.229126, 0.988037, -0.326538, -23.071297, -74.340820, -2.258301
1119014, 0.248169, 0.927124, -0.334351, -23.437508, -55.358902, 4.028320
1119034, 0.334717, 0.902588, -0.324707, -26.672371, -38.452148, 1.464844
1119054, 0.378784, 0.917358, -0.289429, -29.418953, -29.602058, -4.455566
1119074, 0.360718, 0.945801, -0.202393, -26.184090, -32.287598, -10.253906
1119094, 0.280518, 0.952393, -0.200806, -20.080566, -26.062019, -12.451176
1119114, 0.263672, 0.945190, -0.194458, -14.282230, -17.211914, -12.451176
1119134, 0.217896, 0.962036, -0.174316, -7.751467, -11.779789, -10.192871
1119154, 0.196045, 0.953003, -0.200439, -1.159668, -5.065918, -4.272461
1119174, 0.263184, 0.937744, -0.246826, 2.319336, 1.586915, 0.122070
1119194, 0.299683, 0.930298, -0.274658, 2.990724, -0.366211, 0.122070
1119214, 0.306641, 0.920776, -0.303101, -0.610352, -3.234864, -2.258301
1119234, 0.242188, 0.932495, -0.261108, -2.197266, -2.807618, -2.075195
1119254, 0.237061, 0.932983, -0.255005, -1.403809, 2.197266, 0.793457
1119274, 0.287476, 0.925659, -0.286011, -2.685547, 4.821777, 1.159668
1119294, 0.288818, 0.933105, -0.260742, -4.394531, 3.417970, -0.183106
1119314, 0.263550, 0.937744, -0.239868, -3.601075, 3.479005, 0.427246
1119334, 0.249756, 0.935303, -0.241089, -2.563477, 5.310059, 1.708985
1119354, 0.247681, 0.936890, -0.248901, -0.671387, 12.817387, 4.699707
1119374, 0.327393, 0.968750, -0.240967, 3.295899, 4.516602, -2.563477
1119394, 0.208130, 0.933228, -0.307251, 3.723145, 3.906251, -5.126953
1119414, 0.152100, 0.956299, -0.295166, 2.807618, 7.263186, -2.929688
1119434, 0.109619, 0.996826, -0.286133, 7.385256, 16.113281, -6.225588
1119454, 0.107422, 1.020020, -0.319214, 15.625004, 28.686531, -21.484375
1119474, -0.011353, 1.041504, -0.313843, 26.916512, 45.043961, -40.283203
1119494, -0.067139, 0.982178, -0.314087, 36.437988, 64.208984, -44.799820
1119514, -0.015259, 0.874634, -0.354492, 34.606934, 80.505371, -29.663094
1119534, 0.106323, 0.864746, -0.367798, 17.883301, 82.336426, 7.934572
1119554, 0.374146, 0.905884, -0.190552, 3.173829, 74.890137, 15.869144
1119574, 0.567749, 0.925171, -0.078857, 3.051759, 66.955566, 17.211914
1119594, 0.731812, 0.920532, -0.031128, 10.253906, 47.607437, 5.981447
1119614, 0.706421, 0.881104, -0.119629, 13.732914, 26.000984, -10.620117
1119634, 0.606689, 0.879150, -0.137695, 6.713869, 5.065918, -14.648441
1119654, 0.540283, 0.921509, -0.131836, 1.342773, -11.474613, -11.047363
1119674, 0.526611, 0.958130, -0.127441, 12.390141, -20.202637, -29.541023
1119694, 0.461914, 0.920410, -0.256958, 16.479492, -27.709969, -45.776382
1119714, 0.372070, 0.900269, -0.339600, 13.000492, -31.433113, -58.959976
1119734, 0.104736, 0.842407, -0.454834, -5.615236, -47.363297, -51.940933
1119754, 0.059448, 0.890381, -0.323853, -22.583015, -21.423340, -21.362305
1119774, 0.101929, 0.894165, -0.270386, -23.925789, 5.065918, 3.234864
1119794, 0.268921, 0.905273, -0.226196, -21.179199, 21.545410, 23.742683
1119814, 0.459229, 0.905518, -0.279541, -15.747074, 20.935059, 25.817879
1119834, 0.571411, 0.900391, -0.345215, -15.930180, 8.361816, 10.253906
1119854, 0.475830, 0.910400, -0.338379, -17.456055, -11.169437, -6.713869
1119874, 0.259766, 0.909668, -0.311401, -21.484375, -19.958496, -7.812502
1119894, 0.143799, 0.938354, -0.270020, -24.353035, -22.338875, 1.586915
1119914, 0.121582, 0.950317, -0.253540, -25.573738, -11.352543, 3.356935
1119934, 0.131836, 0.996460, -0.168945, -19.042969, -12.023930, 1.281738
1119954, 0.129639, 1.007568, -0.204834, -15.502934, -13.427738, -6.958010
1119974, 0.038452, 1.006592, -0.173462, -14.526371, -14.648441, -12.573246
1119994, 0.002686, 1.009644, -0.165649, -14.099125, -14.587406, -13.549809
1120014, -0.004639, 1.007080, -0.211548, -20.996094, -12.207035, -23.376472
1120034, -0.079712, 1.015381, -0.108521, -24.963387, -12.512211, -23.437508
1120054, -0.145386, 1.027588, -0.023804, -23.193367, -4.333496, -13.244633
1120074, -0.118652, 1.041992, 0.067871, -11.901859, 6.042482, 5.126953
1120094, -0.023560, 1.060913, 0.140137, 8.605957, 9.826660, 22.949226
1120114, 0.046021, 1.009399, 0.045288, 43.701172, 18.859863, 42.236328
1120134, 0.132080, 0.971558, -0.092407, 54.016129, 25.451668, 48.156754
1120154, 0.348267, 0.920044, -0.356812, 38.513184, 18.920898, 38.452148
1120174, 0.449707, 0.931274, -0.363281, 10.314941, 0.549316, 13.977055
1120194, 0.280518, 0.971924, -0.241089, -4.638672, -15.930180, -2.563477
1120214, 0.181152, 0.997437, -0.148315, -12.756351, -16.540527, -13.977055
1120234, 0.041138, 1.017700, -0.005127, -3.051759, -15.014652, -6.835939
1120254, 0.103394, 1.011841, -0.061768, 9.216309, -10.437012, 0.915528
1120274, 0.179443, 0.977173, -0.161865, 9.521484, -8.056641, 1.525879
1120294, 0.218262, 0.979126, -0.185425, 5.432129, -17.944336, -2.075195
1120314, 0.094727, 0.992676, -0.110840, 10.864258, -16.418457, 5.249023
1120334, 0.145386, 0.957153, -0.202759, 10.925293, -4.272461, 9.765625
1120354, 0.235352, 0.940430, -0.251831, 8.300781, 4.821777, 9.521484
1120374, 0.275879, 0.931396, -0.247559, 8.911133, 6.713869, 13.610844
1120394, 0.359375, 0.895508, -0.349854, 4.150391, 4.638672, 11.657719
1120414, 0.350098, 0.906372, -0.302856, 1.647950, 0.976563, 8.911133
1120434, 0.377075, 0.894775, -0.320068, 2.746582, -2.136230, 7.507326
1120454, 0.362183, 0.890503, -0.329590, 5.615236, -0.183106, 4.455566
1120474, 0.353516, 0.885864, -0.362427, 8.972168, 1.098633, 5.554201
1120494, 0.367554, 0.858765, -0.413452, 11.962894, -2.258301, 7.446291
1120514, 0.388062, 0.865234, -0.461426, 9.643555, -1.892090, 4.638672
1120534, 0.356445, 0.857666, -0.496948, 0.610352, 2.746582, 0.305176
1120554, 0.365723, 0.867432, -0.504272, -17.761230, 4.394531, -7.080080
1120574, 0.346924, 0.907471, -0.356567, -33.081055, 1.953125, -15.930180
1120594, 0.265625, 0.944092, -0.205688, -35.766602, -3.112794, -18.310547
1120614, 0.250488, 0.963013, -0.139038, -30.517586, -3.906251, -18.859863
1120634, 0.252930, 0.980835, -0.089111, -21.911621, -2.807618, -20.324707
1120654, 0.229370, 0.989746, -0.068970, -10.864258, -4.028320, -20.874023
1120674, 0.193726, 0.987183, -0.114380, 3.540040, -4.455566, -18.127441
1120694, 0.157959, 0.974487, -0.151367, 9.460449, -2.868653, -14.038090
1120714, 0.171509, 0.959473, -0.211182, 11.535648, -1.403809, -10.437012
1120734, 0.173950, 0.952148, -0.249634, 9.155273, 2.014160, -8.850098
1120754, 0.167725, 0.946411, -0.272949, 5.493164, 3.112794, -6.103518
1120774, 0.190063, 0.943848, -0.289307, -0.488281, 1.220703, -3.906251
1120794, 0.180420, 0.953247, -0.242798, -5.004883, -0.427246, -2.380371
1120814, 0.168457, 0.967041, -0.191528, -4.699707, 0.732422, -0.488281
1120834, 0.181274, 0.966064, -0.197144, -2.746582, 2.075195, 1.586915
1120854, 0.199707, 0.965088, -0.206543, -2.319336, -0.854492, 2.441406
1120874, 0.167603, 0.970459, -0.194580, -0.549316, -1.525879, 6.103518
1120894, 0.159058, 0.963745, -0.187256, 0.976563, -0.427246, 9.155273
