timestamp,ax,ay,az,gx,gy,gz
1126495, 0.148560, 0.975708, -0.162964, -4.455566, -0.244141, -1.647950
1126515, 0.154053, 0.980835, -0.160278, -3.234864, 0.061035, 0.000000
1126535, 0.165771, 0.981445, -0.150879, -1.464844, 0.122070, 0.488281
1126555, 0.175537, 0.975586, -0.164429, -0.427246, -1.708985, 0.366211
1126575, 0.170410, 0.981323, -0.157715, -0.305176, -2.441406, -0.244141
1126595, 0.157471, 0.980103, -0.156860, 1.647950, -2.197266, 0.183106
1126615, 0.180176, 0.969971, -0.191895, 0.732422, -1.647950, -0.122070
1126635, 0.178467, 0.974243, -0.172852, -0.427246, -2.929688, -1.342773
1126655, 0.160278, 0.979248, -0.157227, 0.000000, -3.295899, -1.586915
1126675, 0.134277, 0.986328, -0.138672, 2.136230, -1.464844, -0.244141
1126695, 0.147217, 0.976318, -0.171631, 3.723145, 0.000000, 1.892090
1126715, 0.168945, 0.974854, -0.178833, 2.929688, -0.610352, 2.136230
1126735, 0.170044, 0.974365, -0.171631, 2.197266, -1.586915, 1.525879
1126755, 0.163940, 0.975830, -0.176758, 2.685547, -0.976563, 1.708985
1126775, 0.164795, 0.973511, -0.176880, 2.258301, -0.854492, 1.892090
1126795, 0.157227, 0.974243, -0.179077, 2.258301, -0.122070, 2.746582
1126815, 0.177246, 0.969116, -0.194702, 1.403809, -1.281738, 2.990724
1126835, 0.168335, 0.974121, -0.181885, -0.183106, -1.831055, 3.112794
1126855, 0.165283, 0.974976, -0.173706, 0.427246, -2.258301, 3.845216
1126875, 0.177368, 0.973022, -0.179321, 0.061035, -1.342773, 3.845216
1126895, 0.178711, 0.975464, -0.170654, 0.488281, -1.831055, 3.479005
1126915, 0.182251, 0.974976, -0.169922, 1.220703, -1.098633, 3.356935
1126935, 0.182373, 0.970947, -0.183960, 1.220703, -1.647950, 3.112794
1126955, 0.183960, 0.974487, -0.170166, 1.098633, -2.136230, 2.929688
1126975, 0.184082, 0.974121, -0.169800, 2.014160, -3.417970, 2.868653
1126995, 0.175415, 0.972290, -0.177979, 2.380371, -2.319336, 2.807618
1127015, 0.180542, 0.970337, -0.183228, 2.380371, -0.610352, 2.929688
1127035, 0.193237, 0.968628, -0.187256, 1.831055, -0.854492, 2.502441
1127055, 0.187744, 0.970215, -0.186646, 1.281738, -1.831055, 2.197266
1127075, 0.178711, 0.971313, -0.181396, 1.159668, -0.244141, 2.075195
1127095, 0.191650, 0.973511, -0.172607, 1.647950, 1.464844, 1.770020
1127115, 0.196045, 0.973633, -0.174805, 2.624512, 1.098633, 1.037598
1127135, 0.205200, 0.979614, -0.162598, 4.028320, 3.356935, -0.366211
1127155, 0.180176, 0.983398, -0.162231, 6.103518, 3.295899, -1.037598
1127175, 0.149780, 0.990601, -0.160278, 8.300781, 5.004883, 1.098633
1127195, 0.132446, 1.007446, -0.139038, 12.207035, 12.451176, 4.516602
1127215, 0.176636, 1.059937, -0.003784, 36.193848, -8.178711, 8.056641
1127235, 0.142578, 1.103271, -0.167725, 63.171402, -19.897461, 15.380863
1127255, 0.214478, 1.107666, -0.366455, 71.411133, -14.587406, 14.465336
1127275, 0.245361, 0.993652, -0.477905, 70.190430, -8.544922, -6.225588
1127295, 0.156250, 0.862549, -0.592896, 52.673355, -7.568361, -37.963867
1127315, 0.046021, 0.772339, -0.550903, 41.625977, -13.732914, -42.541504
1127335, -0.083252, 0.717285, -0.505249, 29.174812, -10.742188, -30.883797
1127355, -0.131836, 0.681885, -0.457886, 14.282230, 2.868653, -9.460449
1127375, -0.094604, 0.710938, -0.384399, 0.061035, 24.963387, 13.427738
1127395, 0.010376, 0.725464, -0.289673, -10.070801, 47.180191, 34.790039
1127415, 0.169189, 0.794800, -0.228394, -19.836426, 62.255875, 48.950211
1127435, 0.307251, 0.837891, -0.209717, -32.958984, 60.241714, 60.913101
1127455, 0.416870, 1.003662, -0.191284, -46.997086, 47.607437, 77.331543
1127475, 0.625732, 1.271729, -0.156250, -50.537125, 24.719246, 76.782227
1127495, 0.704224, 0.993774, 0.000000, -27.465828, -2.502441, 26.489265
1127515, 0.718750, 0.974121, 0.006714, -10.437012, -21.850586, -14.831547
1127535, 0.540039, 0.968262, -0.065552, 7.019045, -26.306160, -42.297363
1127555, 0.208618, 0.927856, -0.259888, 15.686039, -40.161133, -47.058121
1127575, -0.026367, 0.898682, -0.432739, 1.159668, -41.198730, -25.268562
1127595, 0.070801, 0.942017, -0.239502, -0.793457, -23.742683, -11.047363
1127615, 0.079468, 0.943237, -0.308838, -1.037598, -6.225588, 0.549316
1127635, 0.160400, 0.925415, -0.342896, -5.371094, 7.751467, 7.873537
1127655, 0.238159, 0.923950, -0.332642, -12.084965, 10.070801, 11.169437
1127675, 0.286865, 0.944336, -0.218018, -13.977055, 8.239746, 9.765625
1127695, 0.303467, 0.957275, -0.178345, -8.789063, 5.493164, 7.568361
1127715, 0.332764, 0.955078, -0.190308, -3.051759, -0.610352, 4.333496
1127735, 0.342896, 0.948730, -0.216064, 0.000000, -4.577637, -1.037598
1127755, 0.321655, 0.949829, -0.210815, 2.746582, -7.934572, -6.103518
1127775, 0.289185, 0.936401, -0.232666, 5.249023, -9.948730, -9.033203
1127795, 0.258301, 0.942261, -0.259155, 5.310059, -7.873537, -10.375977
1127815, 0.238525, 0.939209, -0.265259, 4.577637, -9.582520, -9.460449
1127835, 0.200684, 0.934082, -0.262695, 3.662110, -9.277344, -6.286623
1127855, 0.206177, 0.935303, -0.276978, 3.173829, -4.760742, -3.540040
1127875, 0.224487, 0.937378, -0.274902, -0.061035, 0.549316, -0.793457
1127895, 0.235718, 0.940796, -0.259766, -0.427246, -0.061035, 0.732422
1127915, 0.244873, 0.940674, -0.255859, -0.244141, 0.122070, 1.159668
1127935, 0.252075, 0.938599, -0.262085, -0.366211, 0.244141, 1.159668
1127955, 0.267822, 0.941040, -0.256958, -0.366211, -0.793457, 0.366211
1127975, 0.257690, 0.942627, -0.252319, -0.122070, -2.502441, -0.671387
1127995, 0.241577, 0.941650, -0.251831, 0.549316, -2.868653, -0.488281
1128015, 0.231445, 0.936890, -0.269653, 0.366211, -1.770020, 0.366211
1128035, 0.244507, 0.936523, -0.266968, -0.610352, -0.366211, 0.854492
1128055, 0.251343, 0.939819, -0.262817, -1.220703, 0.366211, 0.671387
1128075, 0.238770, 0.939819, -0.254517, -1.220703, 0.793457, 0.854492
1128095, 0.241821, 0.938110, -0.266724, -1.525879, 0.610352, 1.647950
1128115, 0.242432, 0.936279, -0.267090, -2.624512, 0.854492, 2.502441
1128135, 0.251343, 0.936401, -0.272705, -3.845216, 1.403809, 2.502441
1128155, 0.234497, 0.940186, -0.260132, -4.943848, 2.197266, 3.234864
1128175, 0.225098, 0.937012, -0.261841, -5.554201, 3.906251, 5.065918
1128195, 0.222534, 0.931763, -0.280273, -7.629396, 5.859377, 7.324221
1128215, 0.213257, 0.932983, -0.277222, -10.253906, 9.826660, 9.460449
1128235, 0.254639, 0.951782, -0.290527, -13.732914, 15.686039, 11.047363
1128255, 0.211548, 0.989746, -0.285889, -9.216309, 9.948730, -12.146000
1128275, 0.144287, 1.014282, -0.255615, 2.929688, 4.943848, -25.939949
1128295, 0.021606, 0.997925, -0.344849, 9.643555, 12.512211, -37.963867
1128315, -0.105957, 0.958252, -0.388184, 9.216309, 30.029305, -37.353516
1128335, -0.061890, 0.954712, -0.331421, 8.361816, 47.058121, -23.925789
1128355, 0.049194, 0.963379, -0.267578, 15.686039, 50.354019, -14.404301
1128375, 0.104614, 0.928467, -0.317017, 15.808109, 59.448257, -17.211914
1128395, 0.096802, 0.956421, -0.274536, 8.239746, 67.626953, -18.920898
1128415, 0.166504, 0.897217, -0.165527, -6.469728, 75.805664, 1.586915
1128435, 0.629883, 0.903320, 0.048096, -15.014652, 72.326660, 29.846199
1128455, 0.884277, 0.919922, 0.053345, -10.437012, 47.485367, 13.916019
1128475, 0.839966, 0.946411, 0.075317, -6.896975, 2.807618, -13.000492
1128495, 0.604248, 0.997070, 0.078369, -6.408693, -28.686531, -20.507813
1128515, 0.514526, 1.052734, 0.195435, 20.996094, -44.555679, -42.724609
1128535, 0.397949, 0.976196, -0.061890, 43.334961, -44.311539, -59.509293
1128555, 0.205444, 0.905640, -0.316650, 41.809082, -49.072281, -68.847656
1128575, -0.126587, 0.859009, -0.450684, 22.338875, -34.790039, -52.185074
1128595, -0.077515, 0.908081, -0.352417, 3.234864, -16.540527, -18.859863
1128615, -0.019531, 0.920898, -0.334106, -2.746582, 1.953125, 7.324221
1128635, 0.267212, 0.924561, -0.331299, -7.263186, 6.958010, 21.850586
1128655, 0.391113, 0.924683, -0.285156, -4.821777, -2.197266, 20.263672
1128675, 0.421631, 0.921875, -0.266113, -0.610352, -13.610844, 13.671879
1128695, 0.370117, 0.927124, -0.301270, -1.586915, -21.423340, 5.615236
1128715, 0.259766, 0.915894, -0.312866, -4.638672, -21.911621, 7.324221
1128735, 0.279541, 0.928467, -0.294189, -7.507326, -15.441898, 11.535648
1128755, 0.272217, 0.952881, -0.255615, -6.774904, -11.840824, 11.535648
1128775, 0.223022, 0.933594, -0.328003, -11.413578, -14.709476, 5.065918
1128795, 0.159180, 0.955322, -0.267700, -14.709476, -23.803719, 3.845216
1128815, 0.082642, 0.979126, -0.218506, -15.625004, -22.338875, 4.455566
1128835, 0.027344, 0.990723, -0.187622, -14.892582, -17.944336, 3.234864
1128855, 0.026123, 1.010742, -0.158936, -13.732914, -13.305668, 2.441406
1128875, 0.017334, 1.018677, -0.137329, -10.009766, -12.512211, 1.770020
1128895, 0.027954, 1.012817, -0.155884, -11.108402, -12.878422, -4.577637
1128915, -0.021362, 1.018066, -0.126221, -12.146000, -10.681152, -8.056641
1128935, -0.067749, 1.018921, -0.103638, -11.962894, -2.441406, -7.934572
1128955, -0.094604, 1.040527, 0.010742, -1.892090, 6.408693, 7.690432
1128975, -0.060059, 1.031250, 0.033325, 15.747074, 14.648441, 26.367195
1128995, 0.012207, 1.004883, -0.004395, 34.912109, 26.916512, 41.076660
1129015, 0.158325, 0.949097, -0.169800, 46.569839, 40.283203, 52.673355
1129035, 0.335205, 0.931763, -0.346313, 34.851074, 36.254883, 45.349136
1129055, 0.498047, 0.927856, -0.405396, 5.126953, 16.662598, 20.202637
1129075, 0.409180, 0.958130, -0.283813, -14.343266, -8.239746, -3.845216
1129095, 0.266724, 0.988525, -0.128418, -16.174316, -18.676758, -16.296387
1129115, 0.133057, 1.010376, -0.047607, -5.920412, -15.075687, -15.380863
1129135, 0.157104, 0.984741, -0.118164, 0.488281, -7.751467, -14.038090
1129155, 0.183105, 0.984985, -0.149170, -0.427246, -8.361816, -14.282230
1129175, 0.115845, 1.011719, -0.091309, 4.516602, -9.399414, -12.451176
1129195, 0.019287, 1.000488, -0.096191, 13.549809, 19.409180, -3.662110
1129215, 0.097168, 0.963745, -0.161743, 22.094727, 25.634773, 11.169437
1129235, 0.200928, 0.936035, -0.234375, 23.925789, 30.151375, 19.897461
1129255, 0.293335, 0.928589, -0.275757, 20.629883, 27.099617, 21.789551
1129275, 0.327881, 0.918213, -0.291870, 15.258793, 22.399910, 17.150879
1129295, 0.364136, 0.900757, -0.311890, 9.948730, 19.592285, 12.573246
1129315, 0.340698, 0.894409, -0.270630, 14.770512, 13.000492, 15.686039
1129335, 0.361206, 0.877930, -0.297852, 22.583015, 7.690432, 21.057129
1129355, 0.411621, 0.847412, -0.417236, 22.888191, 7.629396, 20.446777
1129375, 0.447754, 0.825806, -0.476440, 17.150879, 7.629396, 16.784668
1129395, 0.450684, 0.810181, -0.478516, 9.765625, -0.183106, 15.441898
1129415, 0.447144, 0.801758, -0.482178, 7.812502, -1.037598, 16.723633
1129435, 0.458008, 0.810181, -0.540771, 3.173829, 4.821777, 12.023930
1129455, 0.517944, 0.817505, -0.603760, -18.066406, 4.943848, -0.305176
1129475, 0.510254, 0.864624, -0.427734, -39.001465, -2.136230, -16.784668
1129495, 0.407593, 0.919312, -0.217651, -41.625977, -11.962894, -26.306160
1129515, 0.313232, 0.952148, -0.109985, -32.653809, -16.052246, -29.479988
1129535, 0.248535, 0.967896, -0.087036, -19.226074, -15.869144, -27.587898
1129555, 0.197998, 0.968384, -0.101196, -6.774904, -13.366703, -23.071297
1129575, 0.183716, 0.960327, -0.164429, 7.995607, -6.713869, -13.488773
1129595, 0.202393, 0.945435, -0.224243, 12.390141, -3.967286, -7.751467
1129615, 0.223755, 0.929565, -0.286865, 11.657719, -3.601075, -4.272461
1129635, 0.212158, 0.922852, -0.312134, 7.629396, -2.929688, -0.915528
1129655, 0.210815, 0.925903, -0.296021, 3.662110, -0.488281, 2.624512
1129675, 0.229492, 0.931396, -0.282349, 1.892090, 3.540040, 5.554201
1129695, 0.297607, 0.922363, -0.301147, -1.037598, 4.455566, 5.004883
1129715, 0.324707, 0.928711, -0.279541, -3.845216, 0.610352, 1.037598
1129735, 0.310303, 0.931763, -0.266235, -4.760742, -1.159668, -2.868653
1129755, 0.298096, 0.935059, -0.249634, -4.943848, -1.098633, -6.286623
