timestamp,ax,ay,az,gx,gy,gz
1134555, 0.164551, 0.971436, -0.167725, 1.892090, -1.892090, 5.249023
1134575, 0.198120, 0.969482, -0.168091, 0.244141, -2.380371, 5.920412
1134595, 0.210693, 0.970825, -0.154907, -0.366211, -3.845216, 5.554201
1134615, 0.216309, 0.973755, -0.149292, 0.000000, -2.929688, 3.906251
1134635, 0.222900, 0.973755, -0.149048, 0.305176, -3.051759, 2.014160
1134655, 0.223389, 0.971802, -0.150024, 0.732422, -5.310059, 0.549316
1134675, 0.202393, 0.971313, -0.154053, 0.671387, -5.676271, -0.549316
1134695, 0.190063, 0.974731, -0.148071, 1.708985, -2.685547, 0.183106
1134715, 0.200562, 0.966797, -0.172852, 1.037598, -1.831055, 0.122070
1134735, 0.204834, 0.967407, -0.170532, -0.427246, -1.647950, -0.122070
1134755, 0.203369, 0.970581, -0.156738, -1.098633, -1.953125, -0.610352
1134775, 0.201050, 0.973022, -0.153809, -1.037598, -2.014160, -0.793457
1134795, 0.191528, 0.972046, -0.148193, -0.610352, -1.586915, -0.610352
1134815, 0.191162, 0.973267, -0.148926, -0.244141, -1.098633, -0.061035
1134835, 0.188721, 0.976563, -0.141235, 0.671387, -0.122070, 0.610352
1134855, 0.188843, 0.974365, -0.145508, 1.647950, 0.671387, 1.220703
1134875, 0.197388, 0.970703, -0.159302, 1.953125, 1.220703, 1.953125
1134895, 0.216064, 0.969116, -0.164795, 0.305176, -0.305176, 0.915528
1134915, 0.215454, 0.974243, -0.145874, 0.427246, -1.586915, -0.061035
1134935, 0.200073, 0.975586, -0.142578, 1.586915, -1.586915, -0.488281
1134955, 0.193359, 0.970825, -0.158203, 2.075195, -1.098633, -0.061035
1134975, 0.188965, 0.970703, -0.158691, 1.586915, -1.403809, 0.793457
1134995, 0.193237, 0.973755, -0.148315, 2.136230, -1.037598, 1.831055
1135015, 0.202515, 0.970947, -0.162476, 2.441406, -0.183106, 2.014160
1135035, 0.201904, 0.971191, -0.156982, 2.197266, 0.488281, 1.892090
1135055, 0.210205, 0.968384, -0.165161, 2.258301, 0.305176, 1.892090
1135075, 0.215942, 0.968994, -0.160278, 1.281738, -1.037598, 0.915528
1135095, 0.215088, 0.969482, -0.161743, 1.403809, -2.258301, 0.305176
1135115, 0.200562, 0.970947, -0.156738, 1.159668, -2.197266, 0.061035
1135135, 0.184448, 0.975098, -0.146973, 2.380371, -0.976563, 0.915528
1135155, 0.196899, 0.971069, -0.161987, 3.051759, 0.976563, 2.075195
1135175, 0.218018, 0.965698, -0.172363, 2.563477, 0.915528, 1.892090
1135195, 0.225220, 0.966309, -0.174316, 1.464844, -0.427246, 0.671387
1135215, 0.208374, 0.966919, -0.169434, 0.915528, -0.854492, 0.183106
1135235, 0.196533, 0.969727, -0.158936, 0.915528, -0.549316, 0.732422
1135255, 0.202881, 0.970703, -0.160767, 1.586915, -0.122070, 1.647950
1135275, 0.217285, 0.968384, -0.165405, 1.098633, 0.366211, 0.976563
1135295, 0.213989, 0.970947, -0.157715, 1.647950, 0.427246, 0.610352
1135315, 0.218750, 0.966675, -0.168457, 1.892090, 0.427246, 0.183106
1135335, 0.220581, 0.963989, -0.177490, 1.159668, -0.671387, -0.427246
1135355, 0.207886, 0.966431, -0.173706, 0.244141, -1.220703, -0.549316
1135375, 0.195313, 0.967651, -0.166504, 0.000000, -0.610352, 0.244141
1135395, 0.205200, 0.968750, -0.165405, 0.244141, -0.122070, 1.159668
1135415, 0.207886, 0.968384, -0.162109, 0.244141, -0.061035, 1.403809
1135435, 0.206055, 0.972412, -0.152588, 1.159668, -0.061035, 1.770020
1135455, 0.218262, 0.965210, -0.170776, 1.831055, 0.854492, 2.075195
1135475, 0.231079, 0.963501, -0.178955, 0.915528, 0.183106, 1.098633
1135495, 0.224121, 0.964844, -0.172119, 0.122070, -1.220703, 0.122070
1135515, 0.206909, 0.968262, -0.164063, 0.183106, -1.281738, 0.305176
1135535, 0.205444, 0.966919, -0.168945, 0.244141, -0.671387, 1.220703
1135555, 0.219971, 0.965454, -0.174072, -0.244141, -0.793457, 1.281738
1135575, 0.219482, 0.966675, -0.167114, -0.671387, -1.220703, 0.976563
1135595, 0.212158, 0.969116, -0.156616, -0.183106, -0.854492, 0.854492
1135615, 0.214844, 0.969238, -0.155151, 0.793457, -0.549316, 1.220703
1135635, 0.219604, 0.968750, -0.159668, 1.647950, -1.586915, 1.159668
1135655, 0.208252, 0.965576, -0.176880, 1.403809, -0.915528, 1.708985
1135675, 0.213135, 0.963135, -0.174316, 0.671387, -0.488281, 2.319336
1135695, 0.223877, 0.963257, -0.171265, 0.183106, -0.671387, 2.319336
1135715, 0.215698, 0.966797, -0.162598, 0.305176, -0.488281, 2.258301
1135735, 0.220947, 0.970703, -0.160522, 1.098633, -0.671387, 2.685547
1135755, 0.231689, 0.962524, -0.172241, 1.037598, -0.244141, 2.197266
1135775, 0.243286, 0.965210, -0.161987, 1.098633, -0.427246, 0.793457
1135795, 0.238281, 0.966431, -0.167114, 1.586915, -0.732422, -0.671387
1135815, 0.206177, 0.969604, -0.170654, 1.586915, -1.037598, -0.793457
1135835, 0.191040, 0.966675, -0.184814, 0.610352, 0.976563, 4.028320
1135855, 0.222046, 0.966431, -0.190186, -0.732422, 3.051759, 5.249023
1135875, 0.239136, 0.977661, -0.182373, -1.953125, 5.065918, 4.455566
1135895, 0.185303, 0.973755, -0.174072, -1.098633, 12.084965, 5.981447
1135915, 0.174805, 1.016113, -0.076904, 14.038090, 9.155273, 22.155769
1135935, 0.227417, 1.104980, -0.150391, 36.254883, 9.338379, 30.456551
1135955, 0.329346, 1.064453, -0.273926, 49.438492, 9.460449, 27.771004
1135975, 0.408691, 1.024902, -0.381226, 57.495132, 10.681152, 10.620117
1135995, 0.369751, 0.958862, -0.512939, 55.114761, -2.502441, -5.676271
1136015, 0.228882, 0.898193, -0.577393, 30.334480, -11.596684, -16.235352
1136035, 0.038208, 0.854248, -0.503174, 13.549809, -1.281738, -9.338379
1136055, 0.000488, 0.851440, -0.368652, 5.798342, 17.456055, 12.512211
1136075, 0.070801, 0.836426, -0.260986, 10.192871, 39.001465, 28.625496
1136095, 0.174316, 0.862061, -0.261475, 15.380863, 56.091324, 33.508301
1136115, 0.271973, 0.889038, -0.244751, 16.235352, 65.063477, 28.137215
1136135, 0.373413, 0.847168, -0.198486, 17.456055, 57.678238, 16.906738
1136155, 0.416626, 0.791504, -0.207153, 13.061527, 40.222168, 1.464844
1136175, 0.390015, 0.741943, -0.217407, -1.708985, 28.259285, -9.521484
1136195, 0.390991, 0.698120, -0.132202, -19.714355, 20.202637, -13.122562
1136215, 0.331909, 0.703857, -0.037964, -38.085938, 17.089844, -13.305668
1136235, 0.265747, 0.725586, -0.003296, -44.860855, 17.944336, -4.943848
1136255, 0.258911, 0.775391, 0.046631, -49.621597, 21.179199, -0.915528
1136275, 0.424561, 1.580078, -0.007446, -44.677750, 11.962894, 2.685547
1136295, 0.762695, 1.594971, 0.131836, -15.319828, -20.935059, 0.244141
1136315, 0.551758, 0.980103, 0.231201, 19.897461, -71.655273, -20.141602
1136335, 0.117798, 0.915161, -0.343018, 27.221687, -52.612320, -25.146492
1136355, 0.056885, 0.916260, -0.298828, 12.451176, -17.517090, -13.183598
1136375, 0.097900, 0.904175, -0.314697, -0.183106, -0.061035, 2.258301
1136395, 0.197998, 0.933472, -0.260864, -1.159668, 8.544922, 14.160160
1136415, 0.387329, 0.922485, -0.272583, -8.483887, 6.347658, 10.070801
1136435, 0.377930, 0.941162, -0.197266, -11.901859, -1.159668, 3.967286
1136455, 0.351318, 0.959351, -0.133179, -8.666992, -6.225588, 0.061035
1136475, 0.341187, 0.952881, -0.155396, -4.516602, -3.662110, -4.150391
1136495, 0.333740, 0.949341, -0.160278, -2.197266, -3.417970, -7.812502
1136515, 0.306030, 0.937378, -0.200439, -1.403809, -6.042482, -9.216309
1136535, 0.285400, 0.930542, -0.229248, -4.577637, -8.117676, -9.094238
1136555, 0.236450, 0.934082, -0.236328, -8.483887, -7.690432, -7.019045
1136575, 0.193115, 0.939331, -0.223511, -12.268070, -3.112794, -1.586915
1136595, 0.172241, 0.945313, -0.212280, -15.808109, 9.033203, 8.544922
1136615, 0.188721, 0.939453, -0.208496, -18.005371, 17.150879, 15.563969
1136635, 0.314575, 0.989502, -0.132935, -18.188477, 16.174316, 19.287109
1136655, 0.262329, 1.040771, -0.001343, 8.666992, -0.183106, 6.896975
1136675, 0.274902, 0.977051, -0.214600, 21.301270, 0.061035, -0.549316
1136695, 0.255127, 0.959717, -0.290527, 19.226074, 1.159668, -11.474613
1136715, 0.147461, 0.948242, -0.312378, 13.061527, 0.671387, -10.986328
1136735, 0.070923, 0.950928, -0.309570, 7.263186, 9.948730, -7.202150
1136775, 0.180298, 0.992554, -0.231689, 16.845703, 40.405273, -7.629396
1136795, 0.248169, 0.946655, -0.248901, 18.188477, 42.297363, -11.047363
1136815, 0.254517, 0.929077, -0.251587, 12.512211, 45.715347, -13.122562
1136835, 0.317261, 0.941406, -0.167480, 8.422852, 45.776382, -10.070801
1136855, 0.364136, 0.929932, -0.116455, 8.483887, 45.837418, -8.300781
1136875, 0.435913, 0.907593, -0.084717, 6.835939, 43.090820, -7.324221
1136895, 0.491577, 0.931396, -0.029663, 4.394531, 32.897949, -8.422852
1136915, 0.437378, 0.910889, -0.018066, 2.868653, 26.855476, -7.202150
1136935, 0.494141, 0.908325, -0.015869, 0.122070, 23.620613, -4.333496
1136955, 0.579468, 0.925171, 0.013672, 0.610352, 18.188477, -10.131836
1136975, 0.532104, 0.950928, 0.017822, -2.319336, -7.995607, -13.732914
1136995, 0.484009, 1.014282, 0.107666, 15.747074, -20.629883, -31.005867
1137015, 0.395508, 0.964600, -0.062378, 32.348633, -28.015144, -41.748047
1137035, 0.388794, 0.927490, -0.231567, 32.897949, -31.433113, -53.222672
1137055, 0.139526, 0.837036, -0.392822, 19.592285, -30.822762, -50.048843
1137075, 0.110229, 0.853760, -0.321289, -3.723145, -11.901859, -10.498047
1137095, 0.178223, 0.889648, -0.289917, -13.854984, -1.342773, 17.456055
1137115, 0.364014, 0.929077, -0.209595, -16.052246, 4.699707, 26.733406
1137135, 0.451538, 0.921021, -0.217285, -12.023930, 3.234864, 23.986824
1137155, 0.550781, 0.928589, -0.246948, -10.864258, -15.991215, -1.037598
1137175, 0.383423, 0.930664, -0.245239, -10.803223, -34.667969, -13.305668
1137195, 0.178833, 0.920654, -0.209106, -13.610844, -34.912109, -7.812502
1137215, 0.098999, 0.963257, -0.182983, -13.061527, -24.841316, 4.516602
1137235, 0.147705, 0.985107, -0.199219, -13.122562, -15.075687, 6.896975
1137255, 0.132935, 0.984131, -0.204346, -12.451176, -16.235352, 3.112794
1137275, 0.133301, 0.994873, -0.215576, -15.319828, -18.859863, -7.202150
1137295, 0.033203, 1.026123, -0.136230, -15.197758, -17.578125, -10.681152
1137315, -0.036743, 1.020996, -0.091553, -11.291508, -12.329105, -8.666992
1137335, -0.025635, 1.025146, -0.120728, -10.925293, -7.324221, -9.460449
1137355, -0.062500, 1.024780, -0.052368, -11.413578, 0.000000, -9.155273
1137375, -0.076782, 1.040649, 0.067139, -1.159668, 6.958010, 7.934572
1137395, -0.026978, 1.036499, 0.096802, 16.479492, 12.146000, 26.733406
1137415, -0.001831, 1.015747, 0.089600, 38.391113, 23.193367, 43.518066
1137435, 0.093262, 0.969849, -0.029297, 53.466812, 36.254883, 55.847183
1137455, 0.386719, 0.912598, -0.361328, 36.071777, 38.391113, 44.860855
1137475, 0.590332, 0.932861, -0.378174, 0.427246, 13.000492, 13.549809
1137495, 0.444458, 0.974121, -0.172119, -16.296387, -22.094727, -11.962894
1137515, 0.210815, 1.008423, -0.020752, -12.451176, -33.935547, -18.249512
1137535, 0.088623, 1.002930, -0.035645, -2.929688, -17.578125, -13.854984
1137555, 0.115479, 0.987915, -0.061768, 1.281738, -13.305668, -6.835939
1137575, 0.152710, 0.996338, -0.091553, 3.967286, -13.977055, -2.258301
