timestamp,ax,ay,az,gx,gy,gz
1143716, -0.013672, 1.012207, -0.094238, -11.779789, 23.254402, 8.422852
1143736, 0.007813, 1.024048, -0.034424, -4.943848, 30.883797, 16.845703
1143756, 0.055786, 1.021484, 0.017700, 7.080080, 37.109375, 23.193367
1143776, 0.199341, 0.998779, -0.017944, 19.165039, 35.217285, 23.132332
1143796, 0.277832, 0.989014, -0.035767, 19.836426, 25.634773, 18.798828
1143816, 0.286743, 0.978027, 0.000000, 23.132332, 15.686039, 14.282230
1143836, 0.300781, 0.950806, -0.058105, 21.179199, 13.977055, 13.793949
1143856, 0.338013, 0.937012, -0.094727, 14.526371, 13.732914, 15.380863
1143876, 0.404907, 0.970215, -0.075439, 15.502934, 0.488281, 10.253906
1143896, 0.368530, 0.947754, -0.151855, 19.287109, -3.356935, 2.075195
1143916, 0.350342, 0.930786, -0.232300, 15.197758, -7.324221, -4.821777
1143936, 0.341919, 0.938965, -0.213135, 10.009766, -7.141115, -10.437012
1143956, 0.328979, 0.936890, -0.227173, 6.164553, -11.352543, -16.418457
1143976, 0.177612, 0.946777, -0.215088, -0.671387, -16.662598, -14.282230
1143996, 0.125977, 0.957153, -0.190918, -2.807618, -9.643555, -6.042482
1144016, 0.175781, 0.963257, -0.163452, -2.563477, -0.732422, 0.671387
1144036, 0.251099, 0.962646, -0.155640, -1.098633, 0.305176, 2.746582
1144056, 0.289429, 0.967285, -0.133179, 0.915528, -1.525879, 1.159668
1144076, 0.282227, 0.972900, -0.106567, 5.859377, -3.906251, -1.831055
1144096, 0.274414, 0.966675, -0.138184, 10.620117, -4.394531, -3.845216
1144116, 0.273682, 0.962402, -0.157593, 13.000492, -4.089355, -6.347658
1144136, 0.253052, 0.951050, -0.198975, 13.793949, -6.103518, -7.629396
1144156, 0.222900, 0.948608, -0.227051, 9.765625, -6.103518, -6.469728
1144176, 0.207397, 0.950684, -0.222778, 7.507326, -3.417970, -4.821777
1144196, 0.195068, 0.951538, -0.222168, 5.676271, -0.610352, -2.563477
1144216, 0.199585, 0.956055, -0.209229, 4.455566, 1.708985, 0.610352
1144236, 0.228394, 0.954224, -0.208252, 4.455566, 1.281738, 2.502441
1144256, 0.247437, 0.954224, -0.210815, 3.601075, -0.183106, 2.685547
1144276, 0.234497, 0.958374, -0.193848, 3.967286, -2.807618, 2.685547
1144296, 0.214722, 0.961304, -0.182251, 5.798342, -1.647950, 4.089355
1144316, 0.231445, 0.952515, -0.207153, 7.324221, -1.159668, 5.493164
1144336, 0.226440, 0.947876, -0.224487, 6.530764, -1.037598, 6.896975
1144356, 0.250366, 0.948242, -0.226929, 4.516602, -1.647950, 7.263186
1144376, 0.238159, 0.951538, -0.211548, 4.760742, -3.051759, 8.056641
1144396, 0.233032, 0.951294, -0.208618, 5.310059, -2.746582, 9.277344
1144416, 0.223511, 0.949219, -0.207764, 6.469728, -2.258301, 11.657719
1144436, 0.250366, 0.943726, -0.222534, 7.385256, 0.549316, 13.122562
1144456, 0.278687, 0.934937, -0.244873, 6.408693, 3.295899, 12.268070
1144476, 0.302856, 0.934448, -0.250854, 4.577637, 1.525879, 10.375977
1144496, 0.292603, 0.933716, -0.246338, 2.624512, 0.366211, 8.544922
1144516, 0.291870, 0.933472, -0.249512, 1.159668, -0.976563, 7.568361
1144536, 0.293213, 0.935181, -0.235352, -0.366211, 0.305176, 5.432129
1144556, 0.303467, 0.930664, -0.239380, -1.159668, 0.427246, 4.150391
1144576, 0.329834, 0.934326, -0.238037, -2.136230, 0.000000, 0.976563
1144596, 0.302368, 0.937012, -0.226196, -2.746582, -3.173829, -1.037598
1144616, 0.277100, 0.937988, -0.219604, -2.441406, -4.821777, -0.915528
1144636, 0.266968, 0.941284, -0.217651, -1.770020, -2.319336, -0.305176
1144656, 0.270142, 0.940796, -0.214355, -0.976563, 0.610352, 0.244141
1144676, 0.284546, 0.939941, -0.215820, 0.000000, 0.610352, 0.915528
1144696, 0.293823, 0.938599, -0.220825, 0.183106, -1.342773, 0.671387
1144716, 0.287109, 0.941528, -0.210205, 0.915528, -2.868653, 0.488281
1144736, 0.278809, 0.943115, -0.214966, 2.807618, -2.685547, 0.793457
1144756, 0.226563, 0.951294, -0.221558, 3.601075, -2.380371, 2.502441
1144776, 0.076050, 0.961792, -0.206909, 4.638672, 2.685547, 13.793949
1144796, -0.006836, 0.999268, -0.087646, 11.718754, 18.432617, 33.630371
1144816, 0.100952, 1.068237, -0.048950, 24.353035, 42.480469, 41.748047
1144836, 0.281860, 1.056519, -0.177490, 30.334480, 45.227066, 24.658211
1144856, 0.361572, 1.174194, -0.337036, 27.160652, 35.766602, 2.685547
1144876, 0.378418, 1.241333, -0.369507, 26.184090, 8.422852, -23.620613
1144896, 0.245239, 1.137695, -0.345947, 34.973145, -8.422852, -54.016129
1144916, 0.051758, 0.840942, -0.376953, 42.358398, -0.915528, -85.449219
1144936, 0.024048, 0.654419, -0.442017, 33.325195, 13.366703, -88.745148
1144956, 0.008545, 0.624023, -0.410400, 18.127441, 22.460945, -74.218750
1144976, -0.010864, 0.616211, -0.321411, 5.310059, 25.024422, -50.476089
1144996, 0.030396, 0.643311, -0.286987, -4.394531, 39.489746, -21.667480
1145016, 0.143188, 0.753052, -0.287109, -14.587406, 56.579605, 7.995607
1145036, 0.309937, 0.899902, -0.248901, -23.620613, 63.781754, 43.457031
1145056, 0.502808, 1.055664, -0.147095, -25.024422, 57.983414, 84.472656
1145076, 0.724731, 1.097168, -0.081177, -13.977055, 38.024902, 102.478058
1145096, 0.906860, 0.917480, -0.101440, -0.427246, 19.042969, 78.735352
1145116, 0.895386, 0.821655, -0.266357, -1.525879, -1.342773, 18.127441
1145136, 0.721680, 0.842896, -0.213013, -8.789063, -31.311043, -10.009766
1145156, 0.495850, 0.866211, -0.183228, -8.178711, -61.157242, -27.709969
1145176, 0.307373, 0.956665, -0.282593, -10.559082, -62.927261, -38.818359
1145196, 0.154419, 0.956909, -0.284546, -13.244633, -42.480469, -35.400391
1145216, 0.086182, 0.927490, -0.314575, -15.563969, -24.658211, -23.071297
1145236, 0.106445, 0.931519, -0.286133, -20.263672, -6.286623, -10.375977
1145256, 0.179688, 0.939209, -0.226440, -20.080566, 5.432129, -1.770020
1145276, 0.282837, 0.963501, -0.204102, -17.578125, 6.225588, 1.525879
1145296, 0.301147, 0.946167, -0.166870, -11.840824, -3.295899, 0.305176
1145316, 0.281250, 0.955200, -0.167969, -6.774904, -7.751467, 0.305176
1145336, 0.270630, 0.952637, -0.196777, -3.479005, -2.014160, -0.244141
1145356, 0.278687, 0.950928, -0.198486, -1.403809, -2.136230, -0.366211
1145376, 0.274780, 0.942383, -0.213989, -0.122070, -4.760742, 0.610352
1145396, 0.275635, 0.934204, -0.224121, -0.244141, -5.554201, 0.793457
1145416, 0.268311, 0.936523, -0.241699, -1.281738, -3.784181, 0.915528
1145436, 0.272583, 0.933838, -0.256470, -3.356935, -3.356935, 1.708985
1145456, 0.266113, 0.925293, -0.296021, -8.361816, -3.662110, 2.075195
1145476, 0.235596, 0.923340, -0.281738, -14.648441, 0.549316, 3.723145
1145496, 0.188843, 0.937012, -0.231689, -20.141602, 12.084965, 11.596684
1145516, 0.198364, 0.931641, -0.243896, -22.644051, 18.432617, 17.639160
1145536, 0.315918, 1.051636, -0.084473, -7.385256, 0.000000, 9.216309
1145556, 0.187012, 1.018799, -0.176147, 13.366703, 4.272461, -0.244141
1145576, 0.213501, 0.981934, -0.305664, 19.836426, 9.155273, -12.878422
1145596, 0.128906, 0.961914, -0.365723, 14.709476, 16.845703, -19.836426
1145616, 0.049438, 0.945923, -0.351685, 9.033203, 21.911621, -18.066406
1145636, 0.055786, 0.948975, -0.302856, 6.286623, 37.109375, -16.418457
1145656, 0.088501, 0.986938, -0.233521, 6.896975, 47.546402, -10.375977
1145676, 0.224243, 0.964233, -0.169434, 14.831547, 60.852066, -3.479005
1145696, 0.371338, 0.973755, -0.140869, 18.615723, 57.128922, -10.559082
1145716, 0.359253, 0.906128, -0.177734, 13.244633, 50.109879, -13.366703
1145736, 0.455200, 0.892456, -0.107788, 3.356935, 50.903336, -8.789063
1145756, 0.526611, 0.914429, -0.014893, 3.356935, 39.367676, -9.704590
1145776, 0.485107, 0.907471, -0.032104, 5.126953, 28.686531, -7.995607
1145796, 0.499756, 0.891479, -0.057983, -1.403809, 19.897461, -3.051759
1145816, 0.535522, 0.909302, -0.032349, -9.277344, 13.916019, 1.037598
1145836, 0.663330, 0.987671, 0.043579, -4.882813, -5.737307, -10.864258
1145856, 0.532715, 0.990356, 0.024048, 14.099125, -25.817879, -35.339355
1145876, 0.235107, 0.937988, -0.204346, 23.925789, -43.151855, -46.020523
1145896, 0.073242, 0.926514, -0.294678, 18.249512, -37.475586, -38.818359
1145916, 0.018433, 0.924194, -0.337891, 8.666992, -22.399910, -26.306160
1145936, 0.075195, 0.923340, -0.350708, -1.770020, -4.699707, -15.869144
1145956, 0.225952, 0.925537, -0.347534, -13.122562, 3.784181, -14.038090
1145976, 0.233887, 0.918823, -0.223999, -20.385742, 16.174316, -4.516602
1145996, 0.351563, 0.951416, -0.128296, -12.634281, 11.779789, 2.746582
1146016, 0.371704, 0.934448, -0.148682, -5.676271, 7.934572, 6.469728
1146036, 0.419678, 0.936768, -0.187378, -3.051759, 4.211426, 4.150391
1146056, 0.375854, 0.932495, -0.195068, -2.380371, -4.028320, 1.892090
1146076, 0.338501, 0.925415, -0.234497, -4.638672, -10.559082, 0.061035
1146096, 0.292236, 0.946899, -0.225464, -8.972168, -11.291508, 2.502441
1146116, 0.198486, 0.947632, -0.213867, -9.582520, -6.713869, 8.178711
1146136, 0.262695, 0.953735, -0.256592, -11.413578, -6.042482, 4.089355
1146156, 0.236694, 0.956421, -0.247437, -14.221195, -8.117676, -3.295899
1146176, 0.176270, 0.957520, -0.186035, -15.197758, -11.535648, -4.150391
1146196, 0.127930, 0.970825, -0.173096, -13.732914, -11.230473, 0.732422
1146216, 0.142090, 0.976563, -0.136963, -13.244633, -6.469728, 6.713869
1146236, 0.161621, 0.994751, -0.127441, -11.169437, -6.225588, 0.305176
1146256, 0.123047, 0.999390, -0.143799, -11.474613, -7.751467, -5.859377
1146276, 0.082764, 1.009399, -0.121582, -12.207035, -6.896975, -7.568361
1146296, 0.064697, 1.011108, -0.109741, -10.803223, -6.103518, -6.958010
1146316, 0.083374, 0.997803, -0.160522, -14.465336, -9.277344, -14.953617
1146336, 0.049683, 1.007202, -0.099243, -16.784668, -10.864258, -20.690918
1146356, 0.019653, 1.009277, -0.076782, -15.930180, -9.765625, -20.751953
1146376, -0.000977, 1.009521, -0.060059, -14.587406, -7.385256, -16.845703
1146396, -0.010986, 1.025391, 0.020752, -7.263186, -0.976563, -5.859377
1146416, 0.029541, 1.023071, 0.027710, 6.591799, 1.098633, 7.141115
1146436, 0.136475, 0.997070, -0.061035, 18.493652, 3.417970, 16.235352
1146456, 0.146729, 0.989624, -0.075439, 23.559578, 2.563477, 19.165039
1146476, 0.154419, 0.978394, -0.108643, 27.526863, 3.662110, 22.033691
1146496, 0.158813, 0.977539, -0.125610, 29.235847, 5.554201, 23.986824
1146516, 0.174805, 0.949585, -0.223267, 23.559578, 7.385256, 23.254402
1146536, 0.292480, 0.958984, -0.261841, 6.530764, 1.647950, 13.427738
1146556, 0.276489, 0.970947, -0.182495, -5.859377, -12.023930, 0.732422
1146576, 0.205688, 1.000610, -0.079224, -6.408693, -20.690918, -4.760742
1146596, 0.189697, 0.998047, -0.071777, -5.187988, -20.446777, -8.178711
1146616, 0.147583, 1.001831, -0.026611, 5.493164, -22.277840, -3.417970
1146636, 0.085571, 1.005737, -0.050293, 14.282230, -18.188477, 3.784181
1146656, 0.121948, 0.979980, -0.153564, 13.854984, -9.948730, 5.981447
1146676, 0.159302, 0.972656, -0.179443, 6.774904, -5.737307, 5.310059
1146696, 0.171143, 0.978271, -0.173950, 2.319336, -8.850098, 3.356935
1146716, 0.195435, 0.970215, -0.218872, -6.103518, -11.596684, -3.356935
1146736, 0.134766, 0.981812, -0.152954, -7.446291, -12.390141, -4.882813
1146756, 0.108276, 0.995850, -0.116943, -1.342773, -11.352543, 1.220703
1146776, 0.160522, 0.973999, -0.177856, -0.366211, -6.042482, 2.624512
1146796, 0.188110, 0.972168, -0.185913, -5.126953, -1.159668, 0.732422
1146816, 0.204956, 0.966675, -0.191040, -6.958010, -3.417970, -1.953125
1146836, 0.188354, 0.949219, -0.209473, -8.911133, 0.305176, -1.403809
1146856, 0.238770, 0.959839, -0.185303, -6.530764, 1.770020, 3.051759
1146876, 0.241089, 0.947144, -0.195313, -0.915528, -2.929688, 7.751467
1146896, 0.251099, 0.948853, -0.228638, 2.685547, -2.746582, 11.718754
1146916, 0.293335, 0.932129, -0.277222, 1.159668, -4.211426, 11.291508
1146936, 0.280518, 0.948120, -0.237549, 0.061035, -3.662110, 9.094238
1146956, 0.305908, 0.920410, -0.240845, 1.770020, -1.342773, 7.568361
1146976, 0.339600, 0.938599, -0.302612, -2.685547, 7.202150, 2.258301
1146996, 0.328979, 0.922852, -0.238281, 2.502441, 1.770020, 6.774904
1147016, 0.341675, 0.914917, -0.287964, 4.516602, -1.647950, 8.117676
1147036, 0.329590, 0.923584, -0.280151, 1.892090, -2.380371, 6.896975
1147056, 0.314941, 0.931519, -0.256348, -1.403809, 0.122070, 3.234864
1147076, 0.313721, 0.936279, -0.257080, -4.638672, 3.662110, -0.976563
1147096, 0.342041, 0.937866, -0.251221, -12.329105, 1.037598, -8.544922
1147116, 0.289551, 0.958618, -0.172241, -16.052246, -5.065918, -14.404301
1147136, 0.221313, 0.974243, -0.115967, -14.038090, -9.033203, -15.563969
1147156, 0.160278, 0.985229, -0.087036, -9.094238, -6.958010, -12.695316
1147176, 0.150269, 0.990356, -0.071167, -2.502441, -3.234864, -7.873537
1147196, 0.181763, 0.976929, -0.129150, 5.126953, -0.793457, -2.197266
1147216, 0.202148, 0.968262, -0.158813, 5.615236, -0.427246, -0.732422
1147236, 0.213623, 0.964844, -0.174316, 4.943848, -0.488281, -0.244141
1147256, 0.225952, 0.959961, -0.190552, 2.563477, -0.427246, -0.976563
1147276, 0.236084, 0.962280, -0.181274, 0.549316, -2.014160, -2.380371
1147296, 0.220459, 0.963745, -0.175171, -1.159668, -2.380371, -3.723145
1147316, 0.211914, 0.965698, -0.171753, -2.136230, -2.136230, -4.028320
1147336, 0.193237, 0.968628, -0.162231, -3.051759, -2.990724, -3.540040
1147356, 0.189819, 0.969971, -0.160522, -3.234864, -2.075195, -1.953125
1147376, 0.189941, 0.971802, -0.146240, -2.990724, -0.427246, -0.366211
1147396, 0.209839, 0.973877, -0.141479, -1.770020, -0.488281, 0.061035
1147416, 0.210571, 0.974976, -0.142212, -0.976563, -0.305176, -0.488281
1147436, 0.202148, 0.975342, -0.139160, 0.183106, -0.671387, -0.488281
1147456, 0.190918, 0.969604, -0.157227, 0.732422, -0.183106, 0.488281
