timestamp,ax,ay,az,gx,gy,gz
886805, 0.261841, 0.923218, -0.109985, -13.610844, -19.348145, 10.437012
886825, 0.229980, 0.996948, -0.095093, -9.582520, -20.324707, 10.559082
886845, 0.218018, 1.016968, -0.163086, 1.831055, -26.794441, 3.784181
886865, 0.168823, 0.954712, -0.278564, 4.516602, -27.038582, -4.211426
886885, 0.099487, 0.898438, -0.312500, -2.197266, -20.812988, -9.094238
886905, 0.060913, 0.903076, -0.308472, -8.544922, -14.465336, -5.981447
886925, 0.068848, 0.909058, -0.245972, -8.300781, -4.699707, 1.403809
886945, 0.121948, 0.886230, -0.255981, -5.676271, -1.159668, 2.502441
886965, 0.158325, 0.867920, -0.306519, -9.521484, 3.601075, 0.305176
886985, 0.140991, 0.879517, -0.262207, -12.146000, 1.281738, -0.610352
887005, 0.084595, 0.948853, -0.265015, -19.287109, 5.737307, 6.103518
887025, 0.329956, 1.198120, -0.197266, -31.860359, 19.226074, 16.113281
887045, 0.314087, 0.989746, -0.058838, -17.822266, -0.549316, 0.000000
887065, 0.302124, 0.982422, -0.086060, -13.977055, -0.671387, -7.141115
887085, 0.284790, 0.980835, -0.078491, -10.375977, -9.216309, -12.451176
887105, 0.231689, 0.986328, -0.088745, -6.835939, -17.944336, -14.282230
887125, 0.182251, 0.983887, -0.121582, -5.615236, -25.817879, -12.573246
887145, 0.138550, 0.986084, -0.129883, -6.225588, -22.460945, -9.399414
887165, 0.125122, 0.978760, -0.131470, -6.530764, -16.967773, -5.004883
887185, 0.150146, 0.981323, -0.124634, -7.446291, -8.361816, -1.708985
887205, 0.199097, 0.978394, -0.114502, -7.324221, -4.943848, -1.525879
887225, 0.193726, 0.983521, -0.093994, -5.920412, -7.141115, -3.417970
887245, 0.162842, 0.988159, -0.084839, -3.967286, -8.178711, -2.136230
887265, 0.143677, 0.987183, -0.090576, -1.525879, -6.347658, 0.549316
887285, 0.168335, 0.981567, -0.108521, -0.732422, -1.647950, 2.380371
887305, 0.188354, 0.978027, -0.112549, -0.732422, -0.610352, 2.746582
887325, 0.206055, 0.978394, -0.115234, -1.220703, -0.732422, 2.258301
887345, 0.208618, 0.983154, -0.096069, -0.854492, -2.258301, 0.854492
887365, 0.189209, 0.982788, -0.099854, 0.305176, -2.685547, 0.305176
887385, 0.197510, 0.982422, -0.095459, 1.159668, -2.075195, 0.183106
887405, 0.196045, 0.981689, -0.097290, 2.502441, -2.075195, -0.549316
887425, 0.174805, 0.978149, -0.115967, 3.295899, -2.136230, -0.122070
887445, 0.160400, 0.975708, -0.131348, 2.197266, -2.258301, 2.075195
887465, 0.154419, 0.973755, -0.134888, 0.549316, -0.976563, 4.638672
887485, 0.162842, 0.979492, -0.110107, -0.183106, 0.854492, 7.263186
887505, 0.181030, 0.978027, -0.104858, 0.549316, 1.159668, 9.826660
887525, 0.223999, 0.976440, -0.113403, 0.854492, 1.647950, 9.216309
887545, 0.248535, 0.973755, -0.118164, 0.549316, -0.122070, 6.042482
887565, 0.233887, 0.969971, -0.132690, -0.549316, -1.892090, 3.295899
887585, 0.201904, 0.973022, -0.123169, -2.075195, -3.417970, 2.746582
887605, 0.182373, 0.974731, -0.114990, -2.807618, 0.244141, 5.737307
887625, 0.212036, 0.976685, -0.098389, -2.380371, 1.159668, 6.530764
887645, 0.232056, 0.981567, -0.083008, -0.732422, -0.671387, 5.920412
887665, 0.235840, 0.982422, -0.071533, 2.197266, -3.601075, 4.638672
887685, 0.213623, 0.975342, -0.094604, 4.516602, -4.150391, 4.028320
887705, 0.199097, 0.965088, -0.142944, 3.784181, -2.685547, 5.310059
887725, 0.217163, 0.962646, -0.149658, 0.427246, -0.549316, 6.164553
887745, 0.232422, 0.966431, -0.133789, -1.831055, 0.610352, 5.737307
887765, 0.256836, 0.970459, -0.112183, -2.685547, 0.427246, 3.906251
887785, 0.262695, 0.974365, -0.092285, -1.892090, -0.488281, 1.098633
887805, 0.217896, 0.975098, -0.087402, 0.915528, -2.441406, -0.610352
887825, 0.202026, 0.976807, -0.103516, 2.441406, -1.953125, 1.159668
887845, 0.216553, 0.965088, -0.138916, 1.403809, 0.366211, 2.258301
887865, 0.231934, 0.961670, -0.140503, -1.281738, 1.342773, 2.197266
887885, 0.244385, 0.966064, -0.119019, -2.868653, 0.732422, 1.708985
887905, 0.248779, 0.975830, -0.098267, -2.685547, -0.183106, 0.427246
887925, 0.237549, 0.974609, -0.086548, -1.281738, -0.244141, -0.671387
887945, 0.230469, 0.978394, -0.076904, 1.098633, -1.403809, -0.671387
887965, 0.224854, 0.974976, -0.089722, 3.173829, -1.342773, -0.244141
887985, 0.213501, 0.972290, -0.107056, 4.455566, -1.892090, 0.915528
888005, 0.197266, 0.968750, -0.120850, 4.211426, -2.502441, 3.295899
888025, 0.212646, 0.961182, -0.148193, 2.502441, 0.061035, 5.310059
888045, 0.234009, 0.958984, -0.148315, -1.159668, 0.976563, 6.347658
888085, 0.277466, 0.974121, -0.090210, -0.976563, 1.098633, 2.746582
888105, 0.274292, 0.969482, -0.099731, 0.549316, -0.366211, -0.427246
888125, 0.236328, 0.963501, -0.125122, 0.122070, -0.671387, -1.525879
888145, 0.237305, 0.964600, -0.126953, -1.159668, 2.136230, -1.464844
888165, 0.258301, 0.965942, -0.120605, -2.258301, 3.051759, -2.624512
888185, 0.255859, 0.976563, -0.081055, -1.770020, -1.342773, -4.638672
888205, 0.250732, 0.982788, -0.056396, 1.953125, -4.516602, -5.432129
888225, 0.214722, 0.976563, -0.084595, 5.310059, -5.676271, -4.882813
888245, 0.193970, 0.967773, -0.113159, 6.103518, -3.662110, -2.746582
888265, 0.189453, 0.965698, -0.127197, 5.249023, -0.488281, 0.183106
888285, 0.220093, 0.973755, -0.110352, 5.065918, 0.000000, 2.136230
888305, 0.217163, 0.969849, -0.114136, 5.615236, -1.098633, 3.417970
888325, 0.222900, 0.968994, -0.118164, 5.737307, 0.732422, 4.455566
888345, 0.243530, 0.968262, -0.119995, 5.859377, 1.586915, 4.455566
888365, 0.250122, 0.968750, -0.111816, 7.263186, 1.403809, 2.319336
888385, 0.230591, 0.961792, -0.146606, 6.958010, 1.647950, 2.624512
888405, 0.249146, 0.954468, -0.177002, 3.967286, 3.234864, 2.258301
888425, 0.270386, 0.952759, -0.175415, -0.610352, 3.234864, 0.915528
888445, 0.317383, 0.956909, -0.133423, -2.563477, 1.037598, -3.234864
888465, 0.313843, 0.961060, -0.154297, -3.295899, -4.455566, -9.521484
888485, 0.219360, 0.954590, -0.173462, -7.507326, -4.028320, -11.352543
888505, 0.201904, 0.959106, -0.148071, -10.009766, 0.183106, -9.765625
888525, 0.234497, 0.973145, -0.105469, -11.291508, 2.502441, -9.033203
888545, 0.289063, 0.993896, -0.019409, -6.042482, -1.403809, -11.840824
888565, 0.289429, 0.998535, -0.012085, 7.629396, -2.746582, -20.751953
888585, 0.224609, 0.983032, -0.077515, 12.390141, -9.643555, -22.644051
888605, 0.147705, 0.979370, -0.099487, 14.465336, -12.207035, -20.935059
888625, 0.106201, 0.986572, -0.086548, 17.456055, -11.230473, -14.099125
888645, 0.108887, 0.982788, -0.093872, 21.179199, -3.967286, -9.094238
888665, 0.084839, 0.950684, -0.205566, 12.695316, 18.737793, -3.173829
888685, 0.139526, 0.984619, -0.139526, 10.375977, 14.221195, 1.953125
888705, 0.132446, 0.985962, -0.124512, 15.930180, 9.887695, 6.469728
888725, 0.145020, 0.959229, -0.198364, 15.502934, 6.103518, 11.230473
888745, 0.205322, 0.961914, -0.199951, 12.084965, 7.324221, 13.488773
888765, 0.235718, 0.949585, -0.233765, 6.713869, 7.324221, 11.047363
888785, 0.187866, 0.957397, -0.193237, 2.258301, -10.925293, 14.465336
888805, 0.200806, 0.959961, -0.197388, 1.220703, -5.737307, 17.211914
888825, 0.255981, 0.955811, -0.190430, -0.427246, -1.220703, 14.343266
888845, 0.260498, 0.953125, -0.194092, -2.380371, 8.361816, 9.277344
888865, 0.258667, 0.957764, -0.186157, -4.089355, 10.314941, 6.103518
888885, 0.210449, 0.958130, -0.187256, -5.615236, 6.713869, 6.530764
888905, 0.142456, 0.955566, -0.186890, -6.713869, 11.779789, 11.169437
888925, 0.112305, 0.957153, -0.174927, -8.666992, 30.700691, 25.939949
888945, 0.117188, 0.972046, -0.119141, -8.422852, 8.178711, 39.978027
888965, 0.171387, 0.963135, -0.087891, -5.371094, 0.915528, 51.635757
888985, 0.253540, 0.940552, -0.108276, -3.234864, 0.305176, 57.556168
889005, 0.327637, 0.937378, -0.101929, 1.281738, -1.403809, 59.692398
889025, 0.407715, 0.926392, -0.089600, 6.286623, -8.972168, 57.556168
889045, 0.475220, 0.903442, -0.108521, 10.009766, -14.038090, 50.354019
889065, 0.541992, 0.905518, -0.156128, 8.728027, -7.324221, 38.452148
889085, 0.583740, 0.906494, -0.171631, 7.629396, -0.244141, 20.935059
889105, 0.555298, 0.908203, -0.176392, 7.324221, -0.915528, 4.089355
889125, 0.416260, 0.907227, -0.191040, 5.004883, -5.493164, -8.117676
889145, 0.378784, 0.909058, -0.161987, 4.455566, -8.666992, -9.094238
889165, 0.346802, 0.916382, -0.155518, 5.126953, -11.657719, -6.408693
889185, 0.343872, 0.916870, -0.173218, 5.676271, -10.437012, -3.967286
889205, 0.350586, 0.916504, -0.189453, 5.004883, -5.859377, -2.441406
889225, 0.350708, 0.914185, -0.195679, 3.662110, -0.122070, -1.831055
889245, 0.348145, 0.911011, -0.191040, 2.258301, 3.845216, -0.549316
889265, 0.334961, 0.911621, -0.186279, 1.281738, 4.760742, 1.831055
889285, 0.323486, 0.914673, -0.176392, 0.793457, 7.385256, 5.493164
889305, 0.334717, 0.912231, -0.176514, 0.915528, 10.437012, 10.559082
889325, 0.374390, 0.904907, -0.199341, -0.915528, 12.634281, 11.718754
889345, 0.402100, 0.900269, -0.207886, -3.906251, 15.441898, 10.925293
889365, 0.386719, 0.902954, -0.183960, -6.530764, 21.240234, 9.460449
889385, 0.383423, 0.907837, -0.148560, -6.896975, 17.944336, 10.864258
889405, 0.377075, 0.912598, -0.129761, -5.493164, 14.892582, 13.854984
889425, 0.397339, 0.908813, -0.119995, -3.234864, 13.366703, 16.113281
889445, 0.433350, 0.907227, -0.111572, -0.671387, 9.399414, 16.784668
889465, 0.457520, 0.905762, -0.095947, 2.563477, 5.981447, 15.075687
889485, 0.484985, 0.925293, -0.070923, 7.995607, 4.211426, 11.108402
889505, 0.473877, 0.927246, -0.148071, 12.878422, -5.432129, -4.394531
889525, 0.447998, 0.911865, -0.186279, 11.169437, -8.300781, -10.681152
889545, 0.431885, 0.895142, -0.198120, 7.995607, -8.911133, -14.465336
889565, 0.343994, 0.920776, -0.193237, 4.577637, -6.591799, -14.526371
889585, 0.339722, 0.885986, -0.181396, 1.159668, -3.723145, -12.084965
889605, 0.302002, 0.902100, -0.191040, 3.662110, 11.596684, -3.662110
889625, 0.305298, 0.882813, -0.196533, 3.417970, 12.573246, 7.080080
889645, 0.342773, 0.891479, -0.183716, 2.380371, 15.319828, 15.991215
889665, 0.394775, 0.916138, -0.150757, 1.831055, 16.052246, 18.676758
889685, 0.452637, 0.906494, -0.114502, 2.929688, 5.432129, 17.456055
889705, 0.474121, 0.880127, -0.107422, 3.540040, -2.685547, 17.761230
889725, 0.458496, 0.900635, -0.129517, 3.417970, -9.094238, 19.531250
889745, 0.444092, 0.931396, -0.123047, 4.272461, -10.253906, 24.719246
889765, 0.485840, 0.872559, -0.093872, 4.150391, -13.732914, 24.475105
889785, 0.510864, 0.871826, -0.094971, 10.253906, -18.127441, 20.935059
889805, 0.493408, 0.869019, -0.137573, 15.563969, -24.902351, 19.531250
889825, 0.470215, 0.877563, -0.204712, 18.493652, -28.015144, 19.714355
889865, 0.467896, 0.868530, -0.297241, 17.333984, -18.066406, 20.568848
889885, 0.517700, 0.758423, -0.287842, 10.498047, -4.394531, 18.920898
889905, 0.554077, 0.738403, -0.275635, 4.150391, -1.220703, 14.526371
889925, 0.555420, 0.758789, -0.259155, 1.770020, -4.089355, 12.390141
889945, 0.533203, 0.825928, -0.240356, 2.136230, -3.723145, 15.258793
889965, 0.541138, 0.802124, -0.215210, 2.502441, -5.371094, 17.333984
889985, 0.574341, 0.786255, -0.204468, 3.601075, -1.708985, 18.066406
890005, 0.612305, 0.750732, -0.201904, 1.281738, -4.577637, 13.366703
890025, 0.617065, 0.759277, -0.220093, 0.061035, -11.108402, 5.859377
890045, 0.602783, 0.803955, -0.217896, 1.281738, -14.160160, 1.892090
890065, 0.592285, 0.848267, -0.204590, 7.202150, -11.596684, -5.310059
890085, 0.557983, 0.905029, -0.216675, 13.244633, -12.878422, -10.009766
890105, 0.522583, 0.885254, -0.248291, 17.944336, -17.822266, -12.878422
890125, 0.485840, 0.849609, -0.297119, 18.249512, -23.132332, -15.136723
890145, 0.438232, 0.817017, -0.340088, 13.732914, -22.399910, -16.967773
890165, 0.411743, 0.809937, -0.370361, 6.225588, -14.465336, -16.540527
890185, 0.391235, 0.813599, -0.366699, 0.610352, -6.042482, -9.094238
890205, 0.391479, 0.811035, -0.341919, -3.051759, 0.610352, 1.037598
890225, 0.407959, 0.812012, -0.310181, -4.150391, 5.737307, 11.657719
890245, 0.437256, 0.805786, -0.284912, -3.540040, 7.263186, 19.348145
890265, 0.503296, 0.794922, -0.274414, -2.319336, 8.544922, 21.911621
890285, 0.531128, 0.781738, -0.281372, -2.685547, 6.896975, 20.629883
890305, 0.544189, 0.791748, -0.287964, -3.906251, 4.272461, 19.592285
890325, 0.543335, 0.802979, -0.290649, -5.371094, 3.417970, 17.456055
890345, 0.545776, 0.801025, -0.286011, -6.286623, 5.310059, 14.587406
890365, 0.546509, 0.795776, -0.271729, -6.652834, 7.507326, 12.390141
890385, 0.541016, 0.788696, -0.257690, -6.347658, 7.812502, 13.244633
890405, 0.534180, 0.790771, -0.243652, -5.065918, 6.347658, 16.723633
890425, 0.538452, 0.782593, -0.241821, -5.187988, 5.737307, 19.714355
890445, 0.557739, 0.780273, -0.236328, -7.202150, 8.789063, 18.554688
890465, 0.571655, 0.796143, -0.237305, -9.948730, 10.498047, 13.305668
890485, 0.578735, 0.807251, -0.221680, -11.840824, 12.573246, 9.338379
890505, 0.608887, 0.804199, -0.192627, -13.671879, 16.479492, 6.591799
890525, 0.645630, 0.789063, -0.147461, -13.122562, 20.202637, 2.441406
890545, 0.688843, 0.806885, -0.111816, -9.704590, 19.226074, -3.601075
890565, 0.707764, 0.840454, -0.092041, -2.563477, 9.216309, -11.291508
890585, 0.701782, 0.861938, -0.099854, 5.004883, -2.929688, -21.057129
890605, 0.716553, 0.850464, -0.117188, 12.512211, -12.634281, -30.517586
890625, 0.741089, 0.879761, -0.138428, 20.812988, -23.925789, -44.372574
890645, 0.633911, 0.867188, -0.218628, 27.099617, -45.715347, -64.636230
890665, 0.549805, 0.838257, -0.255005, 28.869637, -52.246109, -69.519043
890685, 0.462158, 0.794434, -0.279541, 27.221687, -52.307144, -72.204590
890705, 0.384521, 0.772461, -0.293701, 25.451668, -45.349136, -68.969727
890725, 0.318359, 0.773560, -0.297729, 24.719246, -34.790039, -60.485855
890745, 0.258179, 0.789917, -0.303833, 25.573738, -27.587898, -46.936050
890765, 0.221802, 0.824951, -0.319214, 25.878914, -19.348145, -29.724129
890785, 0.207397, 0.845581, -0.357788, 26.123055, -12.817387, -10.986328
890805, 0.265991, 0.831299, -0.427246, 20.751953, 1.159668, 2.807618
890825, 0.392578, 0.798706, -0.446533, -0.854492, 16.113281, 5.493164
890865, 0.379761, 0.893066, -0.328491, -10.192871, 4.089355, 1.037598
890885, 0.338745, 0.911133, -0.308472, -5.737307, 1.403809, 3.234864
890905, 0.319824, 0.894775, -0.319580, -1.708985, 6.591799, 8.117676
890925, 0.343628, 0.861328, -0.333984, -0.488281, 14.526371, 13.488773
890945, 0.390503, 0.833740, -0.341064, -1.647950, 17.272949, 17.333984
890965, 0.438110, 0.835938, -0.340210, -2.929688, 13.244633, 18.188477
890985, 0.463379, 0.848511, -0.339722, -3.601075, 7.202150, 16.845703
891005, 0.477661, 0.858643, -0.339355, -4.150391, 1.647950, 13.427738
891025, 0.487305, 0.838745, -0.320068, -5.187988, -1.892090, 6.713869
891045, 0.510986, 0.834961, -0.299438, -4.821777, -1.831055, 0.183106
891085, 0.450073, 0.861206, -0.295044, 0.244141, -5.493164, -9.887695
891105, 0.446045, 0.861450, -0.304810, 1.525879, -4.333496, -12.023930
891125, 0.437134, 0.881714, -0.310059, 1.892090, -1.525879, -13.488773
891145, 0.437256, 0.885986, -0.301636, 3.295899, -3.051759, -14.465336
891165, 0.437500, 0.875122, -0.301392, 5.737307, -7.263186, -15.991215
891185, 0.437012, 0.855713, -0.304443, 7.019045, -12.939457, -15.075687
891205, 0.405640, 0.868896, -0.335205, 8.483887, -21.423340, -16.479492
891225, 0.370850, 0.859375, -0.354004, 7.385256, -22.521980, -13.549809
891245, 0.369385, 0.845459, -0.343384, 5.615236, -19.348145, -10.131836
891265, 0.340332, 0.852905, -0.346436, 4.333496, -16.174316, -8.728027
891285, 0.299805, 0.874512, -0.361572, 2.746582, -10.742188, -4.089355
891305, 0.286865, 0.891968, -0.345825, 2.380371, -3.906251, 3.295899
891325, 0.311890, 0.893188, -0.310913, 5.310059, 3.356935, 8.666992
891345, 0.355713, 0.878418, -0.297729, 10.375977, 8.361816, 12.207035
891365, 0.405151, 0.862183, -0.302979, 14.221195, 10.620117, 13.183598
891385, 0.453003, 0.827271, -0.291138, 18.676758, -2.746582, 17.395020
891405, 0.412842, 0.873535, -0.257446, 25.878914, 2.441406, 14.587406
891425, 0.396118, 0.943481, -0.275146, 35.461426, -10.131836, 19.897461
891445, 0.435913, 0.907593, -0.308594, 43.884277, -24.353035, 18.676758
891465, 0.427734, 0.777954, -0.400146, 46.020523, -21.484375, 14.404301
891485, 0.413574, 0.754517, -0.489502, 39.306641, -12.878422, 13.427738
891505, 0.387817, 0.732056, -0.533691, 26.611336, 8.483887, 17.333984
891525, 0.402344, 0.756836, -0.497681, 11.840824, 30.395515, 18.005371
891545, 0.406250, 0.822632, -0.419922, -0.793457, 18.554688, 15.075687
891565, 0.433105, 0.818359, -0.403442, -5.493164, 3.723145, 6.042482
891585, 0.471802, 0.877441, -0.470581, -3.784181, -15.319828, -4.821777
891605, 0.443237, 0.859863, -0.465454, -5.004883, -20.263672, -6.896975
891625, 0.386353, 0.865967, -0.421753, -2.746582, -24.963387, -3.784181
891645, 0.430176, 0.743164, -0.414551, -1.098633, -21.972656, -13.488773
891665, 0.421021, 0.694214, -0.469360, -4.394531, -17.150879, -19.531250
891685, 0.443970, 0.781616, -0.465210, -8.056641, -11.474613, -17.517090
891705, 0.490967, 0.812012, -0.433228, -5.310059, -23.681648, -14.465336
891725, 0.564087, 0.783325, -0.461426, 3.356935, -28.991707, -19.897461
891745, 0.559204, 0.736938, -0.524658, 8.728027, -30.578621, -33.508301
891765, 0.525757, 0.692505, -0.572632, 8.850098, -44.921890, -48.645035
891785, 0.397583, 0.743774, -0.616333, 5.981447, -33.325195, -76.965332
891805, 0.278320, 0.786133, -0.660889, -6.286623, -24.353035, -88.806183
891825, 0.106689, 0.839478, -0.666016, -16.357422, -35.339355, -83.679199
891845, 0.014404, 0.862915, -0.637085, -24.047859, -29.174812, -69.274902
891865, -0.052979, 0.815796, -0.591309, -34.179688, -31.372078, -44.067383
891885, 0.002563, 0.829834, -0.481323, -40.710449, -14.648441, -14.038090
891905, 0.075317, 0.875610, -0.385254, -42.236328, 14.038090, 2.380371
891925, 0.111450, 0.888184, -0.387207, -41.564941, 16.296387, 12.634281
891945, 0.196655, 0.873779, -0.394531, -48.278824, 22.033691, 19.287109
891965, 0.366943, 0.896973, -0.374634, -56.335464, 17.211914, 18.005371
891985, 0.353394, 0.859131, -0.322754, -56.396500, 8.056641, 17.700195
892005, 0.383423, 0.882568, -0.272705, -53.588882, 3.906251, 7.568361
892025, 0.345947, 0.942383, -0.232300, -45.898453, 6.774904, -16.174316
892045, 0.259521, 0.990723, -0.211182, -31.860359, 3.601075, -37.231445
892065, 0.198853, 1.012207, -0.189453, -13.977055, -16.479492, -46.569839
892085, 0.102295, 1.012085, -0.167358, -1.586915, -4.760742, -53.344742
892105, 0.173706, 1.031860, -0.136108, 16.784668, -10.131836, -64.086914
892125, -0.085083, 0.968628, -0.214600, 36.315918, -23.376472, -71.105957
892145, -0.158203, 0.916748, -0.310303, 42.968750, -18.310547, -65.795898
892165, -0.120605, 0.861450, -0.389038, 22.460945, 53.649918, -33.508301
892185, 0.042847, 0.967529, -0.355225, 19.958496, 42.236328, -14.404301
892205, 0.090454, 0.989502, -0.369873, 19.775391, 31.066902, 4.699707
892225, 0.105835, 0.926880, -0.387329, 14.709476, 26.245125, 23.071297
892245, 0.216431, 0.848877, -0.365967, 8.239746, 30.029305, 31.799324
892265, 0.303833, 0.847168, -0.388916, -1.708985, 27.038582, 29.479988
892285, 0.344482, 0.909424, -0.374756, -7.934572, 15.319828, 20.324707
892305, 0.304932, 0.982178, -0.339111, -9.094238, -6.652834, 14.282230
892325, 0.231445, 1.014526, -0.325806, -6.103518, -20.812988, 12.451176
892345, 0.215088, 0.992798, -0.373047, -6.286623, -19.897461, -1.831055
892365, 0.140137, 0.956909, -0.428833, -14.587406, -26.672371, -9.643555
892385, 0.046875, 0.929932, -0.377563, -24.108894, -27.954109, -1.037598
892405, 0.005615, 0.889648, -0.278198, -24.353035, -32.653809, 24.108894
892425, 0.052856, 0.883057, -0.268311, -17.639160, -30.944832, 43.884277
892445, 0.125854, 0.893433, -0.298218, -10.620117, -24.108894, 44.311539
892465, 0.158203, 0.874023, -0.354614, -10.009766, -12.939457, 31.616219
892485, 0.175049, 0.874878, -0.379272, -13.610844, -1.403809, 19.653320
892505, 0.123413, 0.905029, -0.381958, -19.470215, -4.028320, 14.404301
892525, 0.124878, 0.912720, -0.352295, -23.803719, 1.586915, 15.686039
892545, 0.152466, 0.968384, -0.282837, -20.629883, 10.375977, 17.272949
892565, 0.194702, 1.072632, -0.289307, -15.502934, 13.488773, 15.075687
892585, 0.271240, 1.043091, -0.246338, -12.023930, 10.375977, 10.314941
892605, 0.253296, 0.965088, -0.179077, -2.258301, 3.662110, 6.286623
892625, 0.213013, 0.942261, -0.276489, -1.159668, 9.948730, 1.159668
892645, 0.216553, 0.945068, -0.261597, -3.479005, 16.967773, -0.427246
892665, 0.225342, 0.958374, -0.227661, -1.220703, 17.395020, 0.183106
892685, 0.226929, 0.960327, -0.216064, 3.356935, 16.601563, -0.305176
892705, 0.193115, 0.951538, -0.233643, 6.652834, 20.935059, -0.061035
892725, 0.209229, 0.974487, -0.259644, 7.934572, 30.029305, 1.953125
892745, 0.197510, 1.004272, -0.260620, 9.643555, 31.616219, 6.286623
892765, 0.200562, 1.006470, -0.249634, 12.512211, 33.203125, 15.991215
892785, 0.245483, 0.928101, -0.228149, 16.052246, 29.663094, 20.324707
892805, 0.260620, 0.875977, -0.275024, 15.869144, 19.348145, 20.263672
892825, 0.235718, 0.796631, -0.337158, 10.803223, 22.277840, 17.150879
892845, 0.273926, 0.900269, -0.367432, 0.854492, 46.142593, 16.235352
892865, 0.301880, 0.920776, -0.247803, -3.356935, 39.123535, 18.249512
892885, 0.366577, 0.973511, -0.198853, 1.281738, 26.611336, 15.991215
892905, 0.398071, 0.948486, -0.233398, 10.314941, 2.319336, 5.065918
892925, 0.322510, 0.899292, -0.358032, 12.146000, -13.977055, -9.826660
892945, 0.348877, 0.900146, -0.351685, 7.446291, -13.671879, -23.742683
892965, 0.348633, 0.920776, -0.315796, 8.544922, -18.737793, -41.320801
892985, 0.266113, 0.919067, -0.317505, 12.023930, -35.888672, -51.330582
893005, 0.112427, 0.916992, -0.360962, 11.962894, -50.231949, -45.654312
893025, 0.024536, 0.895752, -0.399170, 4.394531, -42.419434, -31.066902
893045, -0.000977, 0.906250, -0.398560, -5.676271, -25.756844, -13.671879
893065, 0.099243, 0.926514, -0.328369, -12.146000, 0.366211, -4.943848
893085, 0.244751, 1.017334, -0.249878, -10.803223, 10.925293, -0.244141
893105, 0.352417, 0.954590, -0.182983, 3.601075, -8.850098, -1.220703
893125, 0.339844, 0.952759, -0.225952, 10.375977, -18.432617, -5.554201
893145, 0.269775, 0.950928, -0.269775, 10.986328, -24.658211, -4.333496
893165, 0.236328, 0.938721, -0.289795, 4.272461, -19.104004, -0.854492
893185, 0.246094, 0.935425, -0.280640, -0.061035, -14.526371, 3.662110
893205, 0.238159, 0.953003, -0.248901, 2.990724, -10.925293, 4.211426
893225, 0.230225, 0.944336, -0.250366, 7.263186, -9.948730, 1.831055
893245, 0.203125, 0.932373, -0.296509, 9.948730, -9.948730, -1.770020
893265, 0.159180, 0.922974, -0.355469, 7.446291, -8.911133, -3.662110
893285, 0.145752, 0.930908, -0.356567, 3.601075, -7.812502, -1.159668
893305, 0.129028, 0.918945, -0.331909, 2.014160, -7.690432, 6.042482
893325, 0.156494, 0.904785, -0.321167, 3.234864, -7.141115, 10.864258
893345, 0.189941, 0.886841, -0.334839, 2.624512, -5.493164, 10.681152
893365, 0.209229, 0.912598, -0.344482, 1.831055, -3.967286, 7.141115
893385, 0.193115, 0.911011, -0.342407, 0.915528, -4.516602, 4.760742
893405, 0.164185, 0.911499, -0.343872, 0.427246, -5.615236, 6.652834
893425, 0.192261, 0.983643, -0.352661, -0.366211, 0.061035, 8.728027
893445, 0.242676, 0.949951, -0.329468, 0.183106, 2.197266, 7.019045
893465, 0.251709, 0.929688, -0.312500, 1.831055, -1.953125, 4.699707
893485, 0.245972, 0.930542, -0.323120, 2.990724, -6.835939, 1.037598
893505, 0.228638, 0.937866, -0.312744, 4.150391, -4.882813, -1.647950
893525, 0.190308, 0.942017, -0.311401, 5.737307, -2.746582, -2.563477
893545, 0.156494, 0.930908, -0.321167, 6.408693, 0.610352, -0.915528
893565, 0.164185, 0.931885, -0.315674, 7.995607, 5.187988, 2.380371
893585, 0.195435, 0.924683, -0.327148, 9.887695, 11.352543, 3.295899
893605, 0.239258, 0.917236, -0.356567, 9.826660, 12.451176, 2.563477
893625, 0.256958, 0.915527, -0.381714, 7.568361, 6.713869, 0.610352
893645, 0.230835, 0.913086, -0.381714, 4.699707, 0.000000, 0.061035
893665, 0.209229, 0.918579, -0.362183, 2.868653, -0.183106, -0.122070
893685, 0.195557, 0.921265, -0.345459, 3.112794, 4.089355, 0.915528
893705, 0.202881, 0.918701, -0.354614, 3.173829, 4.638672, 2.502441
893725, 0.233032, 0.919678, -0.352661, 2.990724, 1.037598, 2.014160
893745, 0.231079, 0.919678, -0.354370, 2.868653, -1.159668, -0.061035
893765, 0.213135, 0.921875, -0.356812, 2.746582, -0.305176, 0.000000
893785, 0.194092, 0.911255, -0.363159, 2.258301, 1.892090, 0.976563
893805, 0.198486, 0.907959, -0.360107, 1.770020, 4.394531, 2.929688
893825, 0.210449, 0.907104, -0.353394, 1.464844, 6.042482, 5.981447
893845, 0.232910, 0.914673, -0.353760, 1.586915, 5.981447, 6.408693
893865, 0.254883, 0.910645, -0.361816, 1.037598, 5.493164, 4.577637
893885, 0.252686, 0.915039, -0.359131, 0.427246, 4.638672, 3.112794
893905, 0.250000, 0.911499, -0.358643, 0.183106, 1.464844, 0.976563
893925, 0.228271, 0.909058, -0.353149, -0.366211, 0.732422, 1.708985
893945, 0.236450, 0.913940, -0.340454, 0.427246, 1.342773, 3.112794
893965, 0.241577, 0.911621, -0.356445, 0.915528, 2.807618, 2.319336
893985, 0.246460, 0.911987, -0.356079, 0.305176, 3.356935, 1.892090
894005, 0.253296, 0.914795, -0.355347, 0.183106, 1.831055, 1.342773
894025, 0.236328, 0.910034, -0.358398, -0.122070, 0.488281, 1.281738
894045, 0.223999, 0.911865, -0.356323, -0.671387, 1.464844, 3.234864
894065, 0.248047, 0.916504, -0.342529, -0.183106, 1.525879, 3.540040
894085, 0.246216, 0.914185, -0.344360, 0.488281, 1.098633, 3.234864
894105, 0.234985, 0.913818, -0.341553, 1.037598, 1.953125, 3.784181
894125, 0.244873, 0.913940, -0.334473, 2.075195, 2.868653, 4.394531
894145, 0.258057, 0.914795, -0.331909, 3.723145, 3.784181, 4.150391
894165, 0.277954, 0.911621, -0.340454, 5.065918, 2.563477, 2.990724
894185, 0.282349, 0.904419, -0.363403, 5.065918, 0.793457, 0.915528
894205, 0.265747, 0.902222, -0.377930, 3.601075, -2.075195, 0.061035
894225, 0.246094, 0.901978, -0.377808, 1.525879, -2.929688, 0.305176
894245, 0.250977, 0.905640, -0.359619, 0.488281, 1.098633, 0.610352
894265, 0.261353, 0.902832, -0.363892, -0.183106, 3.417970, -0.061035
894285, 0.266724, 0.905151, -0.359741, -0.610352, 2.319336, -0.610352
894305, 0.260620, 0.908081, -0.357422, -0.915528, 0.183106, -0.671387
894325, 0.266968, 0.911743, -0.341431, 0.061035, -3.540040, -1.953125
894345, 0.237915, 0.908569, -0.347900, 1.098633, -1.953125, -1.342773
894365, 0.245117, 0.906372, -0.355103, 0.732422, 0.183106, 0.427246
894385, 0.261353, 0.908691, -0.348755, 1.159668, 1.037598, 0.000000
894405, 0.253540, 0.908081, -0.352783, 1.525879, -0.610352, 0.244141
894425, 0.250366, 0.905762, -0.356689, 1.464844, 0.000000, 0.671387
894445, 0.249634, 0.905396, -0.361816, 0.976563, 2.136230, 0.732422
894465, 0.260498, 0.910034, -0.360229, 0.671387, 3.295899, 0.366211
894485, 0.271606, 0.902588, -0.359619, 0.793457, -0.122070, -1.098633
894505, 0.272461, 0.901733, -0.361450, 0.061035, -1.892090, -1.220703
894525, 0.249634, 0.905640, -0.352051, -0.183106, -2.624512, -1.159668
894545, 0.256104, 0.910034, -0.340332, 0.732422, -0.793457, -0.366211
894565, 0.252197, 0.909546, -0.353882, 1.647950, -0.793457, -0.427246
894585, 0.234009, 0.905151, -0.366943, 1.281738, 0.244141, 0.671387
894605, 0.244751, 0.902710, -0.359741, 0.488281, 1.220703, 2.319336
894625, 0.266479, 0.915405, -0.363403, 1.098633, 2.380371, -0.183106
894645, 0.264526, 0.905029, -0.385254, -0.244141, -1.220703, -4.211426
894665, 0.242065, 0.900024, -0.366455, -2.319336, 0.427246, -3.295899
894685, 0.252319, 0.911011, -0.327881, -1.525879, 0.610352, -0.732422
894705, 0.246216, 0.916138, -0.335815, 0.976563, 0.671387, 0.183106
894725, 0.246582, 0.906738, -0.354980, 1.586915, 2.563477, 0.427246
894745, 0.271606, 0.906494, -0.361328, 0.549316, 2.990724, -0.183106
894765, 0.265137, 0.903320, -0.363403, -0.671387, 3.662110, -1.647950
894785, 0.260864, 0.903198, -0.349854, -0.793457, 2.136230, -0.976563
894805, 0.249512, 0.907959, -0.344971, 0.244141, 1.037598, 1.159668
894825, 0.261963, 0.911011, -0.351563, 0.366211, 2.990724, -0.366211
894845, 0.261353, 0.908691, -0.362427, -0.427246, 3.662110, -1.403809
894865, 0.253174, 0.906250, -0.355469, -1.403809, 2.807618, -0.549316
894885, 0.261475, 0.902588, -0.335205, -0.549316, 0.976563, 0.366211
894905, 0.255615, 0.904663, -0.328613, 1.708985, 1.220703, 1.708985
894925, 0.253784, 0.903442, -0.342896, 3.356935, 4.089355, 2.807618
894945, 0.272339, 0.901733, -0.356201, 3.417970, 4.699707, 3.356935
894965, 0.280396, 0.899780, -0.368408, 2.624512, 4.882813, 1.831055
894985, 0.286133, 0.899292, -0.379028, 0.000000, 3.295899, 0.793457
895005, 0.279297, 0.903320, -0.358521, -0.854492, -0.488281, -1.464844
895025, 0.240723, 0.911255, -0.367798, -2.136230, 0.610352, -1.342773
895045, 0.237183, 0.908203, -0.353516, -2.990724, 3.234864, -0.732422
895065, 0.241699, 0.907837, -0.336548, -2.624512, 3.540040, 0.549316
895085, 0.238647, 0.913330, -0.335693, -1.647950, 5.371094, 3.173829
895105, 0.272949, 0.919434, -0.346436, -1.647950, 6.530764, 3.906251
895125, 0.292114, 0.904175, -0.349854, -2.075195, 6.591799, -0.122070
895145, 0.294678, 0.912231, -0.337646, -1.953125, 0.671387, -0.610352
895165, 0.292480, 0.904053, -0.338867, -1.708985, 0.427246, -1.403809
895185, 0.270264, 0.876221, -0.353638, -2.746582, 0.854492, -2.807618
895205, 0.280273, 0.921631, -0.335938, -4.028320, 5.187988, -2.319336
895225, 0.292358, 0.934814, -0.312378, -2.441406, 5.554201, -3.356935
895245, 0.317993, 0.924805, -0.302368, 0.427246, 5.798342, -4.028320
895265, 0.365479, 0.879150, -0.298462, 3.051759, 3.295899, -6.896975
895285, 0.355713, 0.834106, -0.333252, 2.563477, -2.685547, -14.587406
895305, 0.296875, 0.840088, -0.379395, -3.051759, -6.652834, -21.545410
895325, 0.286011, 0.907715, -0.367065, -6.958010, -4.028320, -28.808601
895345, 0.229736, 1.015137, -0.348999, -5.126953, -17.089844, -25.207527
895365, 0.144653, 0.935913, -0.380127, -7.995607, -20.263672, -24.108894
895385, 0.061279, 0.907837, -0.352295, -14.099125, -8.117676, -12.084965
895405, 0.073242, 0.942139, -0.275391, -11.413578, 0.854492, 0.732422
895425, 0.173462, 0.975464, -0.248291, -4.211426, 10.437012, 7.202150
895445, 0.296631, 0.989136, -0.252563, 4.699707, 9.460449, 11.169437
895465, 0.347656, 0.908081, -0.296631, 10.681152, -3.845216, 10.559082
895485, 0.318726, 0.805298, -0.377075, 7.019045, -15.747074, 5.981447
895505, 0.275513, 0.791016, -0.384033, -3.234864, -15.380863, -1.953125
895525, 0.218750, 0.902466, -0.345337, -7.324221, -11.413578, -8.483887
895545, 0.188965, 1.056152, -0.367188, -7.690432, -10.681152, -10.925293
895565, 0.088379, 0.934448, -0.317871, -4.821777, -7.324221, -2.807618
895585, 0.046387, 0.937622, -0.314697, -5.920412, 6.408693, 8.178711
895605, 0.178711, 0.963745, -0.239014, -1.159668, 17.333984, 14.709476
895625, 0.305420, 0.953125, -0.280396, 4.455566, 17.883301, 11.596684
895645, 0.359863, 0.913452, -0.352173, 2.746582, 6.774904, -0.488281
895665, 0.288330, 0.889526, -0.351929, -1.464844, -5.004883, -3.173829
895685, 0.255371, 0.905396, -0.343628, -4.272461, -10.498047, -4.333496
895705, 0.246948, 0.928955, -0.322510, -4.760742, -5.676271, -5.371094
895725, 0.248535, 0.928589, -0.332886, -5.187988, -7.202150, -6.774904
895745, 0.247437, 0.930054, -0.333740, -7.385256, -10.925293, -8.544922
895765, 0.158325, 0.949829, -0.272095, -5.859377, -11.047363, -6.103518
895785, 0.126099, 0.956055, -0.256958, -1.708985, -3.234864, -1.647950
895805, 0.110718, 0.950806, -0.266235, 2.380371, 3.051759, 5.065918
895825, 0.197266, 0.946655, -0.273804, 5.981447, 6.103518, 9.887695
895845, 0.271240, 0.938965, -0.311157, 7.385256, 2.563477, 8.483887
895865, 0.278076, 0.918945, -0.330078, 6.347658, -4.516602, 5.432129
895885, 0.250610, 0.908569, -0.323120, 5.798342, -7.934572, 4.943848
895905, 0.248169, 0.918335, -0.333130, 5.920412, -9.216309, 4.882813
895925, 0.247681, 0.916626, -0.353027, 5.676271, -9.155273, 3.845216
895945, 0.257202, 0.914185, -0.369995, 1.037598, -16.235352, 2.624512
895965, 0.214478, 0.917847, -0.389526, -5.432129, -19.470215, -0.915528
895985, 0.161499, 0.926758, -0.348145, -11.352543, -14.343266, -0.549316
896005, 0.163330, 0.937256, -0.276123, -10.498047, -8.789063, 3.540040
896025, 0.185547, 0.928955, -0.284790, -6.774904, -6.469728, 6.408693
896045, 0.179810, 0.919434, -0.319336, -6.652834, -6.713869, 9.582520
896065, 0.220093, 0.911743, -0.374512, -13.122562, -2.014160, 10.803223
896085, 0.308716, 0.922241, -0.313477, -14.465336, -6.347658, 8.728027
896105, 0.312988, 0.932007, -0.290649, -11.840824, -14.404301, 3.112794
896125, 0.312866, 0.924072, -0.316528, -12.573246, -13.671879, -3.784181
896145, 0.266479, 0.945557, -0.287720, -12.939457, -13.061527, -12.207035
896165, 0.203369, 0.949097, -0.294922, -12.573246, -10.864258, -13.488773
896185, 0.154663, 0.951416, -0.258667, -11.779789, -3.967286, -11.230473
896205, 0.157593, 0.961670, -0.223755, -7.385256, 3.906251, -8.056641
896225, 0.211182, 0.965210, -0.212036, -1.647950, 5.615236, -6.164553
896245, 0.232300, 0.955200, -0.243896, 2.929688, 3.112794, -7.568361
896265, 0.223999, 0.958374, -0.250854, 5.065918, 2.136230, -9.216309
896285, 0.191895, 0.964478, -0.221924, 9.277344, 1.037598, -9.704590
896305, 0.142822, 0.969482, -0.192383, 17.822266, 5.065918, -4.638672
896325, 0.178345, 0.930786, -0.292480, 27.893074, 6.835939, 6.530764
896345, 0.200806, 0.910767, -0.370117, 25.085457, 0.671387, 12.573246
896365, 0.210449, 0.927612, -0.404541, 17.272949, -5.798342, 13.183598
896385, 0.210938, 0.930176, -0.382446, 10.681152, -8.544922, 11.474613
896405, 0.219116, 0.919434, -0.347900, 8.117676, -8.483887, 10.314941
896425, 0.217529, 0.903687, -0.347168, 7.202150, -7.812502, 11.169437
896445, 0.224365, 0.877930, -0.366577, 4.394531, -8.422852, 13.366703
896465, 0.228516, 0.857788, -0.370117, -1.159668, -9.521484, 14.770512
896485, 0.208740, 0.846313, -0.367554, -8.422852, -4.516602, 11.291508
896505, 0.228638, 0.980713, -0.369873, -13.671879, -3.479005, 6.286623
896525, 0.227783, 0.949951, -0.299438, -11.108402, -5.493164, 2.197266
896545, 0.228516, 0.925049, -0.331543, -10.314941, -4.211426, 2.929688
896565, 0.269409, 0.924561, -0.310547, -11.962894, -6.896975, 2.441406
896585, 0.293335, 0.932617, -0.299805, -10.559082, -14.038090, -0.366211
896605, 0.266479, 0.933716, -0.316162, -10.864258, -15.258793, -4.028320
896625, 0.242310, 0.938843, -0.299072, -10.986328, -11.352543, -6.591799
896645, 0.235840, 0.932739, -0.311523, -10.681152, -9.643555, -7.324221
896665, 0.223022, 0.933472, -0.313110, -12.207035, -12.023930, -8.056641
896685, 0.163086, 0.938721, -0.293335, -12.573246, -12.084965, -5.187988
896705, 0.184448, 0.941528, -0.295654, -11.596684, -3.479005, -1.159668
896725, 0.166504, 0.942627, -0.274902, -12.268070, 1.831055, 1.525879
896745, 0.182251, 0.938843, -0.284668, -11.230473, 2.563477, 4.821777
896765, 0.208130, 0.939209, -0.283447, -12.756351, 2.807618, 6.713869
896785, 0.210083, 0.958862, -0.221558, -10.742188, 5.859377, 7.019045
896805, 0.231079, 0.965820, -0.203125, -5.554201, 5.798342, 6.713869
896825, 0.235352, 0.950806, -0.232666, -1.281738, 5.554201, 6.591799
896845, 0.281860, 0.941895, -0.246704, 0.427246, 7.690432, 3.845216
896865, 0.299194, 0.944824, -0.250488, 1.281738, 3.845216, -1.281738
896885, 0.249023, 0.948364, -0.250244, 2.380371, -2.563477, -2.929688
896905, 0.192017, 0.942871, -0.266235, 3.051759, -3.845216, -1.037598
896925, 0.183594, 0.938721, -0.284058, 2.380371, -0.122070, 2.075195
896945, 0.222168, 0.936523, -0.282837, 0.732422, 2.014160, 4.333496
896965, 0.276611, 0.939819, -0.279663, -0.488281, -0.122070, 2.685547
896985, 0.267944, 0.937012, -0.282104, -1.770020, -1.892090, -0.488281
897005, 0.255127, 0.936523, -0.271362, -2.685547, -2.990724, -2.502441
897025, 0.231812, 0.942871, -0.266846, -3.173829, -1.770020, -3.417970
897045, 0.229004, 0.945313, -0.252197, -2.746582, 0.122070, -3.784181
897065, 0.240356, 0.947876, -0.244263, -1.586915, 0.427246, -4.028320
897085, 0.246094, 0.948730, -0.243652, 0.061035, -2.685547, -5.981447
897105, 0.218140, 0.954102, -0.222778, 2.990724, -3.356935, -6.225588
897125, 0.223267, 0.952148, -0.240845, 5.493164, -2.380371, -5.981447
897145, 0.236450, 0.947021, -0.257202, 6.713869, -1.831055, -7.019045
897165, 0.248535, 0.942139, -0.276733, 6.896975, -3.356935, -8.483887
897185, 0.278198, 0.932861, -0.305054, 4.638672, -6.347658, -11.901859
897205, 0.246460, 0.940308, -0.294189, 1.953125, -10.009766, -16.235352
897225, 0.160034, 0.946899, -0.271240, 1.403809, -11.352543, -15.319828
897245, 0.127197, 0.948486, -0.273193, 1.708985, -7.751467, -10.437012
897265, 0.138916, 0.946533, -0.283203, 1.342773, -4.760742, -5.920412
897285, 0.145508, 0.949463, -0.279297, 0.244141, -3.906251, -0.061035
897305, 0.136841, 0.949585, -0.276123, 0.488281, -1.037598, 3.417970
897325, 0.171631, 0.946411, -0.281738, 0.244141, 1.892090, 6.530764
897345, 0.207764, 0.948120, -0.278320, -0.305176, 2.258301, 6.042482
897365, 0.204834, 0.947998, -0.269287, 0.305176, -0.671387, 6.042482
897385, 0.210693, 0.947632, -0.275391, 0.122070, -0.854492, 5.554201
897405, 0.224854, 0.946289, -0.274170, 0.610352, -2.929688, 4.455566
897425, 0.228027, 0.946899, -0.273682, 0.244141, -6.958010, 3.051759
897445, 0.206299, 0.955688, -0.241699, 1.953125, -8.361816, 2.258301
897465, 0.218140, 0.947266, -0.260376, 6.225588, -8.911133, 2.624512
897485, 0.212036, 0.942017, -0.292480, 5.859377, -5.676271, 0.610352
897505, 0.198120, 0.953247, -0.269531, 6.652834, -2.075195, -0.488281
897525, 0.182129, 0.935303, -0.298096, 7.019045, 0.305176, 0.061035
897545, 0.193726, 0.933472, -0.323486, 4.333496, 2.258301, 1.647950
897565, 0.212158, 0.933105, -0.319946, 1.953125, 2.868653, 1.220703
897585, 0.221191, 0.933716, -0.315308, -0.671387, 3.356935, 0.305176
897605, 0.231079, 0.937134, -0.304932, -2.197266, 3.295899, -1.403809
897625, 0.240845, 0.937256, -0.305786, -3.845216, 0.854492, -3.540040
897645, 0.233521, 0.938965, -0.300781, -5.310059, -0.366211, -5.920412
897665, 0.220581, 0.944946, -0.282104, -6.286623, 0.793457, -8.544922
897685, 0.223755, 0.947021, -0.271851, -6.103518, 0.427246, -10.620117
897705, 0.208618, 0.951904, -0.257446, -4.760742, -2.075195, -11.840824
897725, 0.188721, 0.952026, -0.261841, -3.234864, -3.295899, -12.146000
897745, 0.175049, 0.950806, -0.270142, -2.502441, -3.051759, -11.474613
897765, 0.155884, 0.951172, -0.271118, -2.502441, -3.356935, -10.009766
897785, 0.149536, 0.953857, -0.266846, -1.892090, -2.136230, -7.629396
897805, 0.160034, 0.954102, -0.266113, -1.403809, -1.525879, -5.981447
897825, 0.163330, 0.953735, -0.266724, -0.915528, -1.892090, -4.882813
897845, 0.152710, 0.954468, -0.270386, 0.183106, -0.793457, -2.929688
897865, 0.174805, 0.949829, -0.284668, -0.488281, -0.854492, -2.319336
897885, 0.155762, 0.953857, -0.273438, -1.220703, -1.525879, -2.136230
897905, 0.138794, 0.955200, -0.269165, -1.159668, -0.427246, -0.183106
897925, 0.135498, 0.954590, -0.271973, -0.976563, 1.525879, 2.197266
897945, 0.173706, 0.952881, -0.275879, -1.464844, 3.417970, 3.540040
897965, 0.196777, 0.951050, -0.281372, -2.319336, 3.112794, 1.831055
897985, 0.192139, 0.951172, -0.276489, -3.417970, 2.319336, 0.244141
898005, 0.179565, 0.959351, -0.244873, -2.990724, 2.136230, -0.915528
898025, 0.161255, 0.960083, -0.243774, -0.854492, 3.234864, -0.488281
898045, 0.196533, 0.946045, -0.278198, -1.342773, 0.427246, 0.183106
898065, 0.203735, 0.955933, -0.271118, -2.319336, -1.403809, -2.014160
898085, 0.176636, 0.960083, -0.240234, -1.892090, -1.403809, -3.479005
898105, 0.159180, 0.966309, -0.231201, 0.671387, -0.366211, -3.051759
898125, 0.148926, 0.960693, -0.236084, 3.112794, 0.366211, -1.647950
898145, 0.159546, 0.960815, -0.252319, 4.516602, 0.122070, 0.244141
898165, 0.180908, 0.957520, -0.255493, 5.187988, 0.915528, 0.000000
898185, 0.182373, 0.955444, -0.265991, 5.798342, 0.366211, -0.915528
898205, 0.180420, 0.950806, -0.285278, 4.882813, 0.671387, -1.831055
898225, 0.160645, 0.950562, -0.285034, 2.563477, 0.854492, -1.647950
898245, 0.177856, 0.949951, -0.287231, 1.464844, 0.244141, -1.159668
898265, 0.179199, 0.949585, -0.287354, -0.244141, 0.183106, -2.136230
898285, 0.175659, 0.954712, -0.269043, -0.671387, -0.549316, -2.563477
898305, 0.179077, 0.957642, -0.257446, 0.000000, -1.159668, -3.112794
898325, 0.167236, 0.959473, -0.252808, 1.342773, -1.098633, -3.723145
898345, 0.151367, 0.957275, -0.261353, 2.563477, -0.610352, -3.051759
898365, 0.154297, 0.955688, -0.269653, 2.868653, 0.488281, -2.075195
898385, 0.153442, 0.952515, -0.277954, 2.746582, 0.183106, -1.037598
898405, 0.142822, 0.953857, -0.276855, 2.258301, 0.915528, 0.122070
898425, 0.142944, 0.952515, -0.275757, 2.319336, 3.723145, 3.234864
898445, 0.169434, 0.931152, -0.279907, 1.586915, 4.455566, 3.479005
898465, 0.175293, 0.980835, -0.300415, 0.549316, 5.493164, 3.479005
898485, 0.181519, 0.939453, -0.241577, 1.098633, 1.464844, 3.173829
898505, 0.177002, 0.955566, -0.299438, 1.098633, 2.685547, 2.746582
898525, 0.186890, 0.951660, -0.258911, 0.549316, 1.037598, 2.380371
898545, 0.177368, 0.956665, -0.268799, 2.075195, -0.244141, 1.770020
898565, 0.173218, 0.952881, -0.264160, 2.197266, -0.671387, 2.319336
898585, 0.181885, 0.953491, -0.266724, 3.662110, -0.671387, 2.136230
898605, 0.187866, 0.945435, -0.286011, 2.990724, 0.000000, 1.342773
898625, 0.198975, 0.951416, -0.280640, 2.441406, -1.708985, 0.122070
898645, 0.173340, 0.949341, -0.282593, 2.441406, -1.831055, -0.366211
898665, 0.180420, 0.948120, -0.286133, 2.014160, -0.854492, -0.122070
898685, 0.192261, 0.943970, -0.301147, 0.976563, -0.427246, -1.098633
898705, 0.192993, 0.944702, -0.298462, -0.976563, -1.281738, -2.075195
898725, 0.183838, 0.948120, -0.287109, -1.831055, -1.770020, -2.868653
898745, 0.170654, 0.952271, -0.275513, -2.014160, -1.525879, -3.112794
898765, 0.157959, 0.954712, -0.265137, -1.159668, -0.610352, -2.075195
898785, 0.170288, 0.953613, -0.266357, -0.122070, -0.183106, -1.220703
898805, 0.162964, 0.955444, -0.257568, 1.708985, -0.366211, -0.427246
898825, 0.157715, 0.956177, -0.263428, 3.417970, 0.854492, 0.610352
898845, 0.164063, 0.949341, -0.281250, 3.967286, 2.380371, 1.586915
898865, 0.176147, 0.947998, -0.294556, 3.112794, 2.380371, 1.892090
898885, 0.178223, 0.946655, -0.292969, 2.136230, 1.831055, 2.014160
898905, 0.180176, 0.893311, -0.285889, 0.854492, 1.342773, 1.647950
898925, 0.206665, 1.040649, -0.352783, -0.671387, 2.685547, 1.586915
898945, 0.211182, 0.896729, -0.194580, -1.892090, -4.943848, -1.098633
898965, 0.167969, 0.959961, -0.310791, 2.563477, 2.685547, -2.746582
898985, 0.215332, 0.965088, -0.228516, 2.502441, -3.295899, -3.295899
899005, 0.162720, 0.953735, -0.271484, 5.493164, -2.929688, -5.065918
899025, 0.145874, 0.949219, -0.291382, 4.760742, -0.732422, -2.929688
899045, 0.156494, 0.948364, -0.283813, 5.065918, -0.183106, -1.403809
899065, 0.147827, 0.949951, -0.292725, 4.760742, 1.403809, 0.244141
899085, 0.158813, 0.948730, -0.281006, 4.882813, 3.173829, 1.525879
899105, 0.165161, 0.948120, -0.292847, 5.615236, 4.211426, 2.258301
899125, 0.169189, 0.939941, -0.313477, 4.150391, 5.249023, 2.868653
899145, 0.191162, 0.941040, -0.313721, 2.502441, 4.211426, 3.051759
899165, 0.196899, 0.940430, -0.312500, 0.610352, 2.624512, 1.281738
899185, 0.183594, 0.946411, -0.288940, -0.305176, 2.502441, 1.037598
899205, 0.181763, 0.948242, -0.286865, 0.366211, 2.258301, 1.037598
899225, 0.177490, 0.945679, -0.290161, 0.366211, 2.990724, 1.159668
899245, 0.172485, 0.947876, -0.286621, 0.793457, 5.371094, 1.220703
899265, 0.177979, 0.945190, -0.290527, 1.037598, 6.286623, 2.014160
899285, 0.193970, 0.945435, -0.294189, 0.915528, 4.943848, 2.136230
899305, 0.190063, 0.946777, -0.287231, 0.976563, 4.028320, 1.831055
899325, 0.191528, 0.946167, -0.285889, 1.464844, 4.333496, 1.892090
899345, 0.205200, 0.946289, -0.281616, 2.197266, 2.441406, 1.525879
899365, 0.194336, 0.945313, -0.288086, 3.112794, 1.525879, 0.488281
899385, 0.202148, 0.942383, -0.299561, 3.051759, 0.610352, 0.488281
899405, 0.203979, 0.938721, -0.305420, 2.136230, -0.427246, -0.488281
899425, 0.188477, 0.940796, -0.288330, 1.708985, -0.854492, -0.610352
899445, 0.177246, 0.947510, -0.289063, 2.563477, 0.305176, -0.122070
899465, 0.180054, 0.944946, -0.286499, 3.173829, 0.915528, 1.037598
899485, 0.186279, 0.940308, -0.305298, 3.417970, 1.953125, 1.525879
899505, 0.200928, 0.937012, -0.311157, 2.075195, 1.464844, 2.014160
899525, 0.205444, 0.938599, -0.309570, 1.220703, 0.671387, 0.915528
899545, 0.193481, 0.940063, -0.303589, 0.244141, 1.220703, 0.793457
899565, 0.203735, 0.939453, -0.303467, 0.122070, 1.098633, 0.183106
899585, 0.201660, 0.940796, -0.300415, -0.366211, 0.000000, -0.183106
899605, 0.193726, 0.941650, -0.294067, -0.305176, 0.061035, -0.244141
899625, 0.195190, 0.940308, -0.298706, -0.183106, 0.305176, 0.061035
899645, 0.203613, 0.942261, -0.294434, -0.244141, 0.183106, 0.000000
899665, 0.208496, 0.943726, -0.288086, 0.305176, -0.122070, -0.976563
899685, 0.198486, 0.942383, -0.290894, 0.854492, 0.000000, -1.525879
899705, 0.187866, 0.942017, -0.294678, 1.159668, 1.159668, -1.586915
899725, 0.187012, 0.940796, -0.296387, 1.098633, 1.525879, -0.610352
899745, 0.196289, 0.937866, -0.295532, 1.342773, -0.732422, -0.366211
899765, 0.180298, 0.953613, -0.305298, 1.281738, 0.061035, 0.122070
899785, 0.199829, 0.926147, -0.308716, -0.366211, -0.183106, 1.159668
899805, 0.193359, 0.945923, -0.281616, 1.037598, 0.122070, 0.915528
899825, 0.208618, 0.939697, -0.311035, 0.488281, -0.061035, 0.793457
899845, 0.230103, 0.940186, -0.283325, 0.549316, -2.197266, -0.854492
899865, 0.203735, 0.944580, -0.296631, 1.525879, -2.807618, -2.563477
899885, 0.202393, 0.938354, -0.297974, 1.403809, -3.234864, -2.685547
899905, 0.192261, 0.939819, -0.310059, 1.037598, -2.075195, -3.479005
899925, 0.184204, 0.940674, -0.301514, 0.244141, -1.525879, -2.441406
899945, 0.169067, 0.938599, -0.307983, -0.244141, -0.366211, -1.098633
899965, 0.189575, 0.941284, -0.303467, -0.854492, 0.183106, 0.122070
899985, 0.201172, 0.941162, -0.296387, -0.915528, -0.671387, -0.122070
900005, 0.206055, 0.943604, -0.292236, -0.488281, -1.281738, -1.159668
900025, 0.194336, 0.944702, -0.289673, 0.061035, -1.464844, -1.708985
900045, 0.188843, 0.944824, -0.290527, 0.793457, -1.281738, -1.831055
900065, 0.187134, 0.942871, -0.295654, 1.159668, -1.586915, -1.220703
900085, 0.179932, 0.941406, -0.302490, 1.037598, -0.671387, -0.976563
900105, 0.171387, 0.940918, -0.301147, 0.671387, 0.366211, 0.061035
900125, 0.182373, 0.940796, -0.304565, 0.366211, 1.220703, 1.708985
900145, 0.191040, 0.940063, -0.304077, -0.244141, 1.220703, 2.014160
900165, 0.206665, 0.942017, -0.293945, -0.305176, 0.732422, 1.770020
900185, 0.209473, 0.942261, -0.296265, 0.061035, -0.122070, 0.244141
900205, 0.190674, 0.922974, -0.296021, -0.305176, -0.122070, -0.305176
900225, 0.200684, 0.990356, -0.316406, -0.183106, 0.793457, 0.061035
900245, 0.205078, 0.908569, -0.254028, -0.671387, -3.173829, -0.854492
900265, 0.153809, 0.953491, -0.296021, 3.601075, 1.892090, 0.122070
900285, 0.205322, 0.933350, -0.322876, 0.366211, 1.037598, 1.647950
900305, 0.204712, 0.949585, -0.294189, 1.403809, -2.746582, -1.220703
900325, 0.167603, 0.939209, -0.296265, 1.281738, -0.488281, -0.244141
900345, 0.179565, 0.939697, -0.305908, 1.403809, 2.319336, 1.098633
900365, 0.202393, 0.939453, -0.307007, 0.427246, 0.610352, 1.770020
900385, 0.199097, 0.941284, -0.297607, 0.244141, -0.366211, 1.220703
900405, 0.191650, 0.942261, -0.296387, 0.549316, 0.793457, 1.159668
900425, 0.189331, 0.940430, -0.296143, 0.671387, 2.197266, 1.403809
900445, 0.196167, 0.941284, -0.297729, 0.915528, 1.892090, 1.953125
900465, 0.199341, 0.939453, -0.302612, 0.610352, 1.159668, 2.319336
900485, 0.201050, 0.939453, -0.298828, 0.549316, 1.647950, 2.197266
900505, 0.207397, 0.939941, -0.299927, 0.732422, 0.915528, 2.014160
900525, 0.205200, 0.937744, -0.299683, 0.427246, 0.000000, 1.953125
900545, 0.203613, 0.940063, -0.295166, 0.671387, 0.122070, 1.831055
900565, 0.202515, 0.937256, -0.301880, 0.671387, 0.976563, 1.892090
900585, 0.222900, 0.937256, -0.305786, 0.183106, 0.061035, 1.403809
900605, 0.213501, 0.934204, -0.304077, -0.488281, -0.610352, 0.244141
900625, 0.194824, 0.946411, -0.290527, -0.366211, -0.183106, 0.305176
900645, 0.210327, 0.937988, -0.290039, 0.122070, -0.366211, 1.159668
900665, 0.195068, 0.939697, -0.286377, 1.647950, 0.854492, 0.793457
900685, 0.221069, 0.936035, -0.306885, 0.122070, 1.159668, 1.831055
900705, 0.223389, 0.939575, -0.295654, 0.183106, -0.427246, 0.366211
900725, 0.207031, 0.937378, -0.299927, 0.000000, -0.610352, 0.366211
900745, 0.209106, 0.940918, -0.290527, 0.305176, 0.427246, 0.183106
900765, 0.210815, 0.939453, -0.292847, 0.854492, -0.366211, 0.366211
900785, 0.211426, 0.936768, -0.297119, 0.976563, -0.549316, 0.305176
900805, 0.214233, 0.938721, -0.297363, 1.037598, -0.671387, 0.061035
900825, 0.209229, 0.937012, -0.298218, 1.159668, -0.549316, -0.061035
900845, 0.205200, 0.936035, -0.305786, 0.732422, -0.427246, 0.244141
900865, 0.210449, 0.934692, -0.307129, 0.000000, -0.244141, 0.488281
900885, 0.217285, 0.939209, -0.294189, 0.000000, -0.244141, -0.488281
900905, 0.213989, 0.935791, -0.299927, 0.061035, -0.305176, -0.671387
900925, 0.219849, 0.936523, -0.300293, -0.244141, -0.732422, -1.159668
900945, 0.206665, 0.938110, -0.296265, -0.244141, -0.915528, -1.403809
900965, 0.199097, 0.939941, -0.290771, 0.183106, -0.366211, -0.793457
900985, 0.201416, 0.940796, -0.290405, 0.793457, -0.976563, 0.244141
901005, 0.201904, 0.939819, -0.291260, 1.586915, -0.305176, 0.671387
901025, 0.205811, 0.937866, -0.299316, 1.708985, 0.183106, 1.464844
901045, 0.222412, 0.934448, -0.306030, 1.342773, 0.061035, 0.793457
901065, 0.217285, 0.937500, -0.299683, 0.366211, -0.732422, 0.854492
901085, 0.221802, 0.937378, -0.299805, 0.610352, -0.610352, -0.183106
901105, 0.212524, 0.932861, -0.308350, 0.000000, -0.427246, -0.427246
901125, 0.211304, 0.937012, -0.302979, -0.549316, 0.000000, -0.549316
901145, 0.204224, 0.937622, -0.295654, -0.671387, 0.061035, -0.122070
901165, 0.201660, 0.939575, -0.293335, -0.244141, 0.671387, 0.549316
901185, 0.209961, 0.937988, -0.291138, 0.122070, 0.976563, 1.342773
901205, 0.217163, 0.939087, -0.290527, 0.793457, 0.610352, 1.159668
901225, 0.210449, 0.937622, -0.295044, 1.098633, -0.366211, 1.403809
901245, 0.210205, 0.937134, -0.297607, 1.281738, 0.305176, 1.770020
901265, 0.208862, 0.927002, -0.302490, 0.915528, 1.281738, 1.831055
901285, 0.218750, 0.946655, -0.313232, 0.305176, 1.586915, 2.197266
901305, 0.236694, 0.932495, -0.307983, -1.403809, -0.244141, 1.647950
901325, 0.197754, 0.934204, -0.277588, 0.000000, 1.647950, 1.098633
901345, 0.230103, 0.934570, -0.308228, -0.366211, 1.708985, 2.258301
901365, 0.255249, 0.936279, -0.284058, -0.305176, -1.037598, 0.061035
901385, 0.220215, 0.944214, -0.281372, 1.159668, -2.380371, -0.915528
901405, 0.215210, 0.937866, -0.282593, 2.380371, -1.403809, -0.671387
901425, 0.218750, 0.936768, -0.300049, 2.990724, -0.366211, -0.793457
901445, 0.212402, 0.931519, -0.313843, 1.342773, -1.220703, 0.061035
901465, 0.207764, 0.932373, -0.309448, 0.366211, -0.732422, 0.854492
901485, 0.224243, 0.935547, -0.295410, 0.183106, -0.488281, 1.159668
901506, 0.227661, 0.936768, -0.293945, 0.732422, -1.037598, 0.549316
901526, 0.226685, 0.935303, -0.302002, 0.671387, -1.770020, 0.183106
901546, 0.216309, 0.935547, -0.298462, 0.610352, -1.342773, -0.183106
901566, 0.186523, 0.939331, -0.293213, 1.098633, -0.366211, 1.281738
901586, 0.145264, 0.941895, -0.298340, 1.892090, 3.784181, 5.126953
901606, 0.090210, 0.932129, -0.338257, 0.610352, 16.662598, 11.291508
901626, 0.258301, 1.004272, -0.264282, 3.906251, 16.967773, 12.268070
901646, 0.298584, 1.005981, -0.238403, 20.874023, 1.098633, -8.666992
901666, 0.146118, 1.054443, -0.365234, 34.057617, -15.014652, -19.714355
901686, -0.028931, 1.161499, -0.508423, 41.320801, -1.342773, -22.094727
901706, -0.036987, 1.136230, -0.461426, 51.147476, 19.775391, -33.447266
901726, -0.074829, 1.027344, -0.455566, 65.673828, 28.747566, -50.170914
901746, -0.176025, 0.936768, -0.556396, 70.068359, 46.936050, -65.063477
901766, -0.204468, 0.872192, -0.585205, 61.218277, 67.687988, -69.641113
901786, -0.187378, 0.812134, -0.542236, 47.668472, 87.036133, -66.406250
901806, -0.119263, 0.762817, -0.486816, 24.841316, 111.938507, -49.865738
901826, -0.010986, 0.759521, -0.415649, 12.817387, 121.643097, -39.550781
901846, 0.137695, 0.750488, -0.349121, 6.652834, 127.258331, -40.283203
901866, 0.285889, 0.721558, -0.306274, 3.601075, 120.178253, -49.011246
901886, 0.387085, 0.674438, -0.338379, -5.615236, 100.463898, -64.575195
901906, 0.353149, 0.640747, -0.403809, -31.616219, 77.819824, -73.059082
901926, 0.335449, 0.683594, -0.283691, -63.049332, 67.138672, -64.514160
901946, 0.377563, 0.802979, -0.090332, -77.026367, 62.438980, -49.804703
901966, 0.351563, 1.073853, -0.003296, -76.843262, 58.532730, -32.104492
901986, 0.364990, 1.689941, -0.042480, -74.462891, 70.739746, 15.930180
902006, 0.886719, 1.233521, 0.457153, -24.047859, 14.038090, 5.737307
902026, 0.660767, 1.187988, 0.255249, 26.000984, -19.348145, -32.165527
902046, 0.201050, 1.160156, -0.264038, 26.062019, -2.990724, -22.766121
902066, 0.394287, 1.207520, -0.130493, 8.850098, 4.089355, 2.136230
902086, 0.348999, 1.127686, -0.033936, 20.324707, -27.038582, 19.165039
902106, 0.305664, 1.008667, -0.176514, 20.141602, -39.855957, 36.010742
902126, 0.305176, 0.934082, -0.231445, 8.117676, -36.254883, 45.227066
902146, 0.302856, 0.834351, -0.153076, -2.380371, -34.790039, 60.119644
902166, 0.352173, 0.697144, -0.112305, -10.314941, -40.954590, 78.369141
902186, 0.482300, 0.566406, -0.134399, -31.799324, -46.813980, 85.876465
902206, 0.522217, 0.645142, -0.096558, -43.029785, -52.063004, 67.382813
902226, 0.482422, 0.732300, -0.051758, -39.184570, -72.692871, 33.630371
902246, 0.321533, 0.753784, -0.100952, -29.846199, -93.994171, -1.708985
902266, 0.083496, 0.755127, -0.199707, -26.855476, -104.431183, -23.193367
902286, -0.151001, 0.778564, -0.276978, -31.005867, -101.989777, -28.564461
902306, -0.532471, 0.770142, -0.343506, -40.893555, -97.656281, -10.498047
902326, -0.325317, 0.902466, -0.406372, -43.334961, -58.837906, -13.427738
902346, -0.101807, 2.083496, -0.443115, -26.550301, -59.143082, -25.207527
902366, 0.050049, 1.606201, -0.028320, 47.180191, -93.811066, -91.369659
902386, -0.765503, 0.732910, -0.980103, 27.160652, -31.127937, -31.616219
902406, -0.712158, 0.850464, -0.633545, -27.099617, 42.724609, 22.583015
902426, -0.283936, 1.013672, -0.202637, -26.672371, 68.664551, 56.457535
902446, -0.015137, 1.054565, -0.149536, -0.854492, 84.960938, 60.852066
902466, 0.145874, 0.974609, -0.155396, 24.597176, 80.322266, 55.053726
902486, 0.301758, 0.969727, -0.325439, 37.292480, 67.260742, 35.095215
902506, 0.356323, 1.005127, -0.510864, 34.179688, 30.517586, -1.464844
902526, 0.136230, 1.047974, -0.540283, 21.484375, 14.465336, -36.621094
902546, -0.148193, 1.039917, -0.470581, 15.625004, -4.638672, -51.757828
902566, -0.313232, 1.020142, -0.320313, 18.188477, 32.531738, -41.381836
902586, -0.264404, 0.992065, -0.271362, 25.390633, 71.411133, -28.320320
902606, -0.078125, 0.942139, -0.238647, 32.104492, 100.891144, -20.996094
902626, 0.100830, 0.881104, -0.276367, 33.813477, 107.788116, -25.695808
902646, 0.215332, 0.847778, -0.308228, 26.123055, 98.449738, -34.851074
902666, 0.255127, 0.821289, -0.257935, 14.465336, 87.646484, -41.442871
902686, 0.267944, 0.851563, -0.202271, 2.441406, 81.481934, -44.006348
902706, 0.265381, 0.877563, -0.135498, -4.638672, 78.002930, -40.222168
902726, 0.279907, 0.855835, -0.105225, -9.460449, 76.354980, -30.517586
902746, 0.330444, 0.850464, -0.101318, -16.540527, 72.265625, -19.714355
902766, 0.426025, 0.882080, -0.052734, -28.930672, 63.415543, -11.657719
902786, 0.447998, 0.981445, -0.045410, -35.034180, 53.894058, -10.070801
902806, 0.448242, 1.194214, 0.007446, -37.841797, 47.790543, 8.728027
902826, 0.524536, 1.256714, 0.157837, -21.667480, 33.569336, 24.414070
902846, 0.644775, 1.172485, 0.175171, 3.417970, 12.451176, 14.770512
902866, 0.576172, 1.119385, 0.023193, 25.024422, -15.991215, -7.263186
902886, 0.430420, 1.077271, -0.100586, 27.526863, -19.897461, -7.141115
902906, 0.387207, 1.040894, -0.070435, 30.090340, -34.729004, 4.272461
902926, 0.284668, 0.993164, -0.096436, 34.973145, -46.997086, 16.784668
902946, 0.258179, 0.930298, -0.221558, 28.076180, -47.302261, 25.878914
902966, 0.266357, 0.915405, -0.235352, 15.319828, -42.480469, 29.235847
902986, 0.295410, 0.897339, -0.194336, 7.141115, -44.494644, 34.729004
903006, 0.312866, 0.863892, -0.187744, 1.342773, -49.865738, 41.931152
903026, 0.352295, 0.860107, -0.185303, -3.967286, -53.833023, 46.936050
903046, 0.364014, 0.881226, -0.184692, -5.554201, -59.509293, 43.640137
903066, 0.354980, 0.908813, -0.213623, -5.187988, -67.138672, 31.555183
903086, 0.311768, 0.866455, -0.256104, -4.211426, -75.256348, 17.395020
903106, 0.205444, 0.792725, -0.336670, -10.314941, -82.458496, 9.460449
903126, 0.058228, 0.755737, -0.374146, -23.620613, -83.923340, 15.686039
903146, -0.019165, 0.833862, -0.284424, -34.973145, -67.199707, 35.766602
903166, 0.046875, 0.944214, -0.281250, -28.381355, -50.842300, 33.508301
903186, 0.103027, 0.967773, -0.349365, -19.348145, -42.480469, 17.150879
903206, 0.105591, 0.924561, -0.452271, -17.883301, -44.311539, -3.967286
903226, -0.001953, 0.850708, -0.503296, -27.771004, -52.734390, -18.798828
903246, -0.172241, 0.975952, -0.464966, -38.635254, -52.063004, -19.165039
903266, 0.097046, 1.504761, -0.246704, -9.643555, -71.533203, -23.742683
903286, -0.185059, 1.092285, -0.283691, 16.540527, -45.837418, -34.301758
903306, -0.273193, 0.907959, -0.468750, 10.253906, -3.845216, -9.521484
903326, -0.092163, 0.918457, -0.384521, -12.329105, 31.982430, 26.916512
903346, 0.099854, 0.937622, -0.293701, -16.113281, 34.240723, 40.466309
903366, 0.289551, 0.958252, -0.243530, -15.563969, 33.081055, 40.649414
903386, 0.486694, 0.933960, -0.223267, -12.695316, 30.822762, 24.780281
903406, 0.604370, 1.002808, -0.247559, -10.437012, 12.695316, 0.183106
903426, 0.551514, 0.909912, -0.238403, -10.803223, -15.991215, -23.925789
903446, 0.379883, 0.952271, -0.239380, -9.582520, -35.827637, -39.978027
903466, 0.214478, 0.959595, -0.213623, -9.338379, -48.522964, -43.640137
903486, 0.043945, 0.954834, -0.184326, -4.699707, -49.804703, -37.902832
903506, -0.049561, 0.973999, -0.205444, -1.281738, -37.902832, -24.414070
903526, -0.106934, 0.969238, -0.218262, 4.028320, -11.352543, -0.122070
903546, -0.011719, 0.970459, -0.229126, 5.798342, 6.896975, 13.122562
903566, 0.141724, 0.972046, -0.216797, 9.216309, 14.587406, 18.249512
903586, 0.303223, 0.956177, -0.259155, 10.925293, 14.160160, 12.207035
903606, 0.385620, 0.946411, -0.301514, 9.094238, 4.455566, -2.258301
903626, 0.336426, 0.936401, -0.339600, 3.967286, -12.023930, -15.258793
903646, 0.255127, 0.938232, -0.321167, -1.770020, -21.606445, -24.292000
903666, 0.152588, 0.954834, -0.276001, -4.394531, -26.306160, -27.038582
903686, 0.049805, 0.958862, -0.259644, -4.150391, -24.108894, -24.108894
903706, -0.084961, 0.961914, -0.256226, -3.601075, -11.901859, -7.934572
903726, -0.145508, 0.965820, -0.240967, -2.502441, 0.854492, 9.582520
903746, -0.108765, 0.974731, -0.213623, 0.427246, 17.211914, 27.709969
903766, -0.006226, 0.968628, -0.193481, 5.310059, 32.653809, 40.100098
903786, 0.138062, 0.932129, -0.179321, 10.925293, 42.785645, 44.494644
903806, 0.318604, 1.044434, -0.231445, 16.845703, 39.733887, 39.855957
903826, 0.427734, 0.879761, -0.304810, 14.648441, 28.930672, 26.428230
903846, 0.451050, 0.926025, -0.342651, 10.742188, 5.676271, 10.742188
903866, 0.481323, 0.923706, -0.378418, 1.403809, -9.033203, -8.728027
903886, 0.402344, 0.928345, -0.278442, -3.234864, -34.179688, -29.418953
903906, 0.162231, 0.955566, -0.245361, 0.915528, -39.367676, -33.874512
903926, -0.018311, 0.949097, -0.266968, 2.380371, -29.907234, -26.977547
903946, -0.146118, 0.935181, -0.310181, 1.464844, -15.869144, -8.850098
903966, -0.166138, 0.950684, -0.313965, -1.892090, -2.014160, 15.563969
903986, -0.084473, 0.959351, -0.237427, -1.342773, 10.742188, 36.865234
904006, 0.056519, 0.974487, -0.177734, 5.859377, 18.127441, 50.659195
904026, 0.234375, 0.959595, -0.158325, 15.380863, 19.592285, 53.894058
904046, 0.414917, 0.943115, -0.170410, 24.597176, 5.737307, 46.630875
904066, 0.444702, 0.918579, -0.222046, 32.043457, -40.527344, 42.175293
904086, 0.487305, 0.899658, -0.405396, 29.663094, -44.677750, 18.310547
904106, 0.422607, 0.889282, -0.426636, 22.583015, -31.005867, -1.403809
904126, 0.279907, 0.907715, -0.440063, 15.197758, -33.142090, -14.587406
904146, 0.162109, 0.906128, -0.411621, 9.399414, -37.536621, -13.732914
904166, 0.019653, 0.910645, -0.386719, 5.737307, -36.010742, -5.310059
904186, -0.048584, 0.933105, -0.343994, 4.943848, -17.883301, 8.972168
904206, -0.069580, 0.891968, -0.254517, 10.314941, 5.371094, 26.550301
904226, -0.057007, 1.056030, -0.245972, 22.827156, 30.090340, 47.241226
904246, 0.028198, 0.890259, -0.360474, 9.277344, 61.706558, 60.363785
904266, 0.219971, 0.861816, -0.406982, -8.483887, 80.993652, 63.659683
904286, 0.491577, 0.863037, -0.260376, -2.807618, 55.725113, 54.382339
904306, 0.559937, 0.942017, -0.240234, 16.906738, 16.174316, 41.198730
904326, 0.591431, 0.917236, -0.365356, 27.954109, 0.671387, 17.883301
904346, 0.601440, 0.866821, -0.503540, 24.658211, -1.220703, -7.385256
904366, 0.516479, 0.923096, -0.532349, 19.042969, -17.272949, -19.470215
904386, 0.414917, 0.927612, -0.443726, 19.226074, -41.992188, -20.080566
904406, 0.327515, 0.877197, -0.368408, 24.475105, -56.274429, -18.920898
904426, 0.217529, 0.856934, -0.376221, 29.846199, -54.260269, -15.808109
904446, 0.095703, 0.857422, -0.436890, 29.663094, -45.349136, -5.493164
904466, 0.086182, 0.840942, -0.467041, 17.272949, -17.944336, 18.005371
904486, 0.177002, 0.841064, -0.433960, 11.413578, -0.976563, 30.883797
904506, 0.258911, 0.844849, -0.416260, 11.230473, 8.972168, 39.733887
904526, 0.370361, 0.809082, -0.386353, 14.282230, 12.329105, 45.227066
904546, 0.476074, 0.785522, -0.370239, 19.714355, 10.009766, 42.480469
904566, 0.512207, 0.774780, -0.391113, 22.216805, 3.601075, 36.315918
904586, 0.505737, 0.755859, -0.429443, 23.315437, -10.437012, 32.958984
904606, 0.471802, 0.723511, -0.487793, 18.127441, -22.338875, 28.747566
904626, 0.415527, 0.691528, -0.520264, 9.277344, -27.160652, 27.526863
904646, 0.367920, 0.684570, -0.479492, -2.929688, -23.010262, 34.362793
904666, 0.328125, 0.706177, -0.472656, -6.469728, -17.395020, 45.837418
904686, 0.347900, 0.715088, -0.473145, -7.446291, -6.835939, 57.861343
904706, 0.411865, 0.738281, -0.487549, -8.239746, 8.239746, 62.683121
904726, 0.514893, 0.758667, -0.507202, -9.155273, 22.766121, 56.518570
904746, 0.609375, 0.770142, -0.499756, -7.812502, 27.099617, 46.936050
904766, 0.671265, 0.764526, -0.484253, -4.333496, 19.836426, 36.865234
904786, 0.713867, 0.731812, -0.463745, -0.671387, 2.807618, 26.184090
904806, 0.742676, 0.695435, -0.427734, 3.784181, -15.991215, 9.826660
904826, 0.672485, 0.702271, -0.449097, 9.094238, -36.743164, -7.507326
904846, 0.528809, 0.684937, -0.544434, 8.178711, -49.133316, -17.578125
904866, 0.442505, 0.696289, -0.576416, 2.014160, -41.442871, -13.916019
904886, 0.404907, 0.697998, -0.553345, -2.685547, -24.963387, -5.249023
904906, 0.414917, 0.680786, -0.532471, -3.417970, -6.835939, 2.380371
904926, 0.430420, 0.679810, -0.523926, -4.882813, 5.676271, 6.469728
904946, 0.432861, 0.719238, -0.520264, -5.859377, 10.559082, 8.544922
904966, 0.461182, 0.753906, -0.499878, -4.943848, 12.695316, 11.901859
904986, 0.483643, 0.789063, -0.479614, -2.136230, 12.756351, 13.549809
905006, 0.509033, 0.772095, -0.478149, -0.244141, 10.864258, 12.756351
905026, 0.593506, 0.739868, -0.501343, -3.845216, 3.112794, 2.502441
905046, 0.538330, 0.775757, -0.469604, -4.943848, -9.338379, 0.183106
905066, 0.482300, 0.804565, -0.444092, -0.915528, -20.751953, 4.211426
905086, 0.460815, 0.769409, -0.451172, 3.540040, -20.507813, 8.117676
905106, 0.474731, 0.719116, -0.499756, 2.014160, -13.305668, 4.333496
905126, 0.490234, 0.714233, -0.555176, -8.117676, -9.704590, -1.464844
905146, 0.488281, 0.752563, -0.566406, -18.188477, -11.474613, -3.417970
905166, 0.510376, 0.740967, -0.568359, -30.273445, -11.901859, -13.061527
905186, 0.498413, 0.723267, -0.538208, -40.771484, -6.469728, -29.541023
905206, 0.472656, 0.722534, -0.492554, -42.297363, -0.305176, -42.907715
905226, 0.421265, 0.723511, -0.435425, -36.437988, 0.854492, -47.546402
905246, 0.393677, 0.763550, -0.448242, -34.790039, 1.464844, -44.616714
905266, 0.360107, 0.776001, -0.468994, -36.071777, 1.464844, -41.503906
905286, 0.354248, 0.811279, -0.452271, -37.780762, 0.732422, -36.254883
905306, 0.341675, 0.864136, -0.394775, -32.470703, -5.859377, -26.611336
905326, 0.345093, 0.897095, -0.346191, -23.437508, -12.146000, -17.395020
905346, 0.349854, 0.873901, -0.327881, -11.596684, -14.221195, -7.995607
905366, 0.350708, 0.855225, -0.331543, -1.403809, -9.338379, -0.671387
905386, 0.333130, 0.838867, -0.343140, 6.530764, -1.831055, 6.530764
905406, 0.366699, 0.819824, -0.382080, 12.878422, 11.047363, 18.066406
905426, 0.430786, 0.776367, -0.395508, 14.892582, 17.333984, 23.437508
905446, 0.488037, 0.765503, -0.415039, 15.808109, 17.822266, 24.963387
905466, 0.512939, 0.766235, -0.430908, 15.563969, 13.854984, 22.521980
905486, 0.502075, 0.791626, -0.451782, 13.793949, 6.408693, 18.371582
905506, 0.468994, 0.791992, -0.447144, 12.695316, -1.037598, 15.869144
905526, 0.435425, 0.764038, -0.433472, 12.512211, -6.774904, 14.587406
905546, 0.423340, 0.721069, -0.451660, 7.507326, -6.652834, 11.169437
905566, 0.422485, 0.682617, -0.482300, -1.525879, 1.647950, 7.202150
905586, 0.419312, 0.749146, -0.476074, -8.789063, 6.225588, 9.338379
905606, 0.374268, 0.900879, -0.440796, -8.666992, 3.967286, 22.644051
905626, 0.433960, 0.890259, -0.388794, -4.577637, 15.808109, 28.747566
905646, 0.504028, 0.812378, -0.341309, 0.061035, 31.188972, 25.817879
905666, 0.580078, 0.746826, -0.313477, 4.821777, 37.841797, 23.071297
905686, 0.632935, 0.706299, -0.311768, 7.507326, 34.729004, 17.395020
905706, 0.637329, 0.725098, -0.320923, 8.605957, 32.836914, 9.521484
905726, 0.634277, 0.812744, -0.335815, 6.286623, 33.386230, 0.793457
905746, 0.611206, 0.906860, -0.343750, 7.934572, 41.809082, -12.756351
984330, 0.275757, 0.922729, -0.305664, -2.563477, -3.295899, 0.976563
984350, 0.269531, 0.919922, -0.311646, -2.868653, -2.624512, 0.244141
984370, 0.268433, 0.923218, -0.297485, -2.319336, -1.708985, 0.244141
984390, 0.286499, 0.920898, -0.303223, -1.525879, -1.464844, -0.488281
984410, 0.274048, 0.922485, -0.302856, -1.525879, -3.295899, -2.746582
984430, 0.249634, 0.924561, -0.299316, -0.793457, -3.295899, -1.647950
984450, 0.267212, 0.920410, -0.306641, -0.488281, -3.295899, -1.037598
984470, 0.259766, 0.923340, -0.306763, -0.671387, -4.333496, -0.915528
984490, 0.246460, 0.920410, -0.311157, -0.793457, -1.403809, -0.183106
984510, 0.263428, 0.924438, -0.299805, -0.732422, -2.380371, 0.549316
984530, 0.263794, 0.919922, -0.312012, -0.610352, -0.610352, 0.366211
984550, 0.270752, 0.920410, -0.309448, -1.281738, -3.173829, 0.671387
984570, 0.267944, 0.921509, -0.308594, -1.464844, -5.981447, 1.037598
984590, 0.253052, 0.919556, -0.319946, -1.953125, -4.333496, 0.854492
984610, 0.217651, 0.918457, -0.329956, -4.821777, -1.892090, 3.662110
984630, 0.206787, 0.911865, -0.334229, -7.263186, 4.028320, 7.507326
984650, 0.299072, 0.949463, -0.318604, -9.216309, -0.061035, 8.789063
984670, 0.304565, 0.964844, -0.323853, -3.356935, -7.934572, -12.023930
984690, 0.182861, 0.959473, -0.369385, 0.244141, -5.737307, -28.259285
984710, 0.089844, 0.946777, -0.389282, 2.685547, 5.615236, -37.658691
984730, 0.091919, 0.928955, -0.411865, 3.112794, 13.122562, -39.855957
984750, 0.083130, 0.913086, -0.437622, 0.793457, 17.578125, -37.231445
984770, 0.088623, 0.912598, -0.430908, 0.366211, 20.446777, -34.973145
984790, 0.103638, 0.909668, -0.389160, 0.610352, 27.221687, -30.273445
984810, 0.146362, 0.920410, -0.361694, -3.173829, 27.832039, -23.925789
984830, 0.184326, 0.951904, -0.306641, -6.896975, 41.320801, -25.512703
984850, 0.242798, 0.972534, -0.192261, -4.943848, 51.269547, -29.602058
984870, 0.300293, 0.968140, -0.129883, 3.967286, 54.931656, -32.897949
984890, 0.355347, 0.931396, -0.184326, 4.028320, 43.884277, -28.869637
984910, 0.374634, 0.912476, -0.214355, -7.812502, 29.785164, -22.644051
984930, 0.371948, 0.937012, -0.177002, -23.254402, 20.874023, -17.639160
984950, 0.399414, 0.984009, -0.075439, -29.663094, 8.056641, -17.883301
984970, 0.423340, 1.006714, -0.028687, -23.620613, -14.282230, -38.146973
984990, 0.264526, 1.014771, -0.011963, 1.647950, -28.991707, -51.513687
985010, 0.121216, 1.004028, -0.097656, 17.211914, -42.236328, -53.894058
985030, -0.036133, 0.948364, -0.275269, 21.301270, -46.264664, -47.729507
985050, -0.136108, 0.921387, -0.403076, 10.742188, -31.555183, -35.278320
985070, -0.112061, 0.925171, -0.361694, -0.732422, 1.342773, -9.338379
985090, 0.088379, 0.927002, -0.314453, -0.427246, 12.146000, 27.221687
985110, 0.268921, 0.928711, -0.316895, 4.577637, 6.958010, 52.368179
985130, 0.347168, 0.915039, -0.263672, 15.014652, 3.051759, 63.049332
985150, 0.374878, 0.909058, -0.404541, 15.197758, -0.854492, 56.457535
985170, 0.248047, 0.912231, -0.378784, 7.446291, -2.929688, 41.381836
985190, 0.044922, 0.921509, -0.328979, 6.286623, 9.399414, 51.574722
985210, 0.053833, 0.942505, -0.318481, 2.990724, 17.395020, 58.105484
985230, 0.129395, 0.975464, -0.300537, -3.540040, 27.038582, 55.908218
985250, 0.220215, 1.013672, -0.301025, -11.169437, 19.714355, 28.808601
985270, 0.158081, 1.029175, -0.213013, -10.925293, 0.305176, 0.183106
985290, 0.040894, 1.022095, -0.168945, -6.958010, -10.864258, -10.375977
985310, -0.089478, 1.016479, -0.111938, -1.586915, -6.713869, -8.056641
985330, -0.046265, 1.012573, -0.127563, 6.225588, 1.403809, 7.995607
985350, 0.104736, 0.987915, -0.238770, -4.089355, 3.356935, 8.422852
985370, 0.140869, 0.996582, -0.096924, -2.380371, 1.098633, 13.000492
985390, 0.174805, 0.982178, -0.093750, 14.953617, -1.525879, 19.958496
985410, 0.275879, 0.951660, -0.203125, 22.644051, -5.310059, 21.728516
985430, 0.279663, 0.947632, -0.209473, 27.587898, -11.718754, 19.104004
985450, 0.185791, 0.943481, -0.219604, 32.653809, -10.131836, 19.897461
985470, 0.167603, 0.927368, -0.290771, 34.301758, 0.549316, 24.292000
985490, 0.243896, 0.907227, -0.394653, 22.155769, 12.878422, 25.268562
985510, 0.313843, 0.928345, -0.410522, 2.868653, 18.737793, 15.686039
985530, 0.285156, 0.968140, -0.275879, -11.169437, 6.469728, 4.821777
985550, 0.185181, 1.005981, -0.215088, -15.136723, -3.234864, -3.051759
985570, 0.165405, 1.033936, -0.164185, -18.066406, -1.770020, -12.634281
985590, 0.181763, 1.024658, -0.139893, -21.789551, -4.943848, -25.512703
985610, 0.085571, 1.049072, 0.009888, -9.460449, -16.479492, -23.376472
985630, 0.045776, 0.994995, -0.136597, -2.929688, -13.854984, -15.686039
985650, 0.075806, 0.992676, -0.187500, -8.789063, -2.929688, -10.681152
985670, 0.101563, 0.974487, -0.184692, -8.972168, -0.427246, -1.403809
985690, 0.180664, 0.962524, -0.244263, -12.878422, 3.784181, 2.685547
985710, 0.275513, 0.910645, -0.222168, -6.652834, -0.488281, 7.080080
985730, 0.347046, 0.872681, -0.258911, 19.653320, -13.122562, 20.629883
985750, 0.413452, 0.828491, -0.431274, 31.433113, -13.000492, 29.785164
985770, 0.509399, 0.780884, -0.577515, 24.414070, -14.282230, 28.442390
985790, 0.496826, 0.765625, -0.503784, 24.414070, -15.014652, 26.550301
985810, 0.545898, 0.756348, -0.554688, 29.479988, -12.756351, 26.123055
985830, 0.552368, 0.764771, -0.596680, 24.292000, -12.878422, 16.784668
985850, 0.453491, 0.792847, -0.581055, 21.545410, -8.361816, 11.352543
985870, 0.524414, 0.781494, -0.765137, -7.629396, -5.493164, -2.990724
985890, 0.510132, 0.840576, -0.528320, -33.813477, -15.380863, -19.592285
985910, 0.415283, 0.870972, -0.404175, -43.823242, -26.611336, -30.822762
985930, 0.229736, 0.933228, -0.195435, -43.395996, -24.353035, -36.376953
985950, 0.128418, 0.966431, -0.111328, -30.639656, -15.136723, -30.395515
985970, 0.097412, 0.989380, -0.060059, -13.061527, -10.253906, -20.263672
986010, 0.226074, 0.952881, -0.211548, 17.150879, -3.967286, -8.056641
986030, 0.197998, 0.940796, -0.263794, 21.057129, -1.770020, -7.934572
986050, 0.155151, 0.930176, -0.306885, 22.338875, 0.061035, -2.807618
986070, 0.177124, 0.922974, -0.334961, 20.507813, 2.990724, 2.014160
986090, 0.182495, 0.918945, -0.344971, 18.310547, 6.530764, 5.187988
986110, 0.234253, 0.914063, -0.354858, 14.404301, 8.483887, 9.521484
986130, 0.266479, 0.914185, -0.346802, 12.268070, 8.789063, 9.094238
986150, 0.312500, 0.911377, -0.354370, 10.620117, 5.371094, 5.554201
986170, 0.306763, 0.911865, -0.353027, 8.605957, 0.061035, 0.915528
986190, 0.256958, 0.912964, -0.352295, 7.446291, -2.319336, -1.098633
986210, 0.242920, 0.903931, -0.377563, 5.249023, -2.685547, -0.915528
986230, 0.231567, 0.906250, -0.381714, 1.342773, -1.159668, -0.305176
986250, 0.250366, 0.907959, -0.367188, -1.098633, -0.976563, 0.244141
986270, 0.252930, 0.917114, -0.336182, -2.197266, -2.319336, -0.122070
