timestamp,ax,ay,az,gx,gy,gz
1090273, 0.253662, 0.919067, -0.312500, -7.751467, 9.155273, 18.249512
1090293, 0.243164, 0.950073, -0.273560, -11.291508, 12.939457, 17.517090
1090313, 0.271851, 0.923218, -0.269653, -14.282230, 17.639160, 16.052246
1090333, 0.302612, 0.938965, -0.225952, -14.587406, 18.981934, 15.563969
1090353, 0.375244, 0.953125, -0.222290, -13.305668, 16.784668, 2.136230
1090373, 0.355347, 0.950562, -0.192871, -9.521484, 11.901859, -6.591799
1090393, 0.343262, 0.947998, -0.199341, -6.530764, 10.986328, -11.596684
1090413, 0.303101, 0.947510, -0.197510, -3.662110, 13.549809, -16.418457
1090433, 0.297607, 0.935791, -0.192017, -1.403809, 15.075687, -16.235352
1090453, 0.282837, 0.944824, -0.187378, 0.244141, 18.981934, -16.601563
1090473, 0.282349, 0.946045, -0.150269, 4.882813, 24.963387, -14.526371
1090493, 0.313721, 0.939209, -0.146729, 9.704590, 25.451668, -13.916019
1090513, 0.333984, 0.942261, -0.129761, 11.596684, 26.489265, -10.314941
1090533, 0.378662, 0.926025, -0.126465, 10.437012, 23.681648, -10.131836
1090553, 0.381348, 0.917236, -0.132324, 0.549316, 14.038090, -9.704590
1090573, 0.389038, 0.949097, -0.069580, -5.737307, 5.371094, -9.643555
1090593, 0.356323, 0.960205, -0.029785, -7.141115, -3.784181, -11.840824
1090613, 0.313721, 0.952271, -0.031372, -7.690432, -6.225588, -12.634281
1090633, 0.329956, 0.953857, -0.046875, -11.596684, -7.446291, -12.817387
1090653, 0.323853, 1.005859, 0.050781, -5.493164, -15.930180, -17.395020
1090673, 0.221191, 1.008789, 0.050659, 11.230473, -16.113281, -19.592285
1090693, 0.171997, 0.979858, -0.081421, 20.324707, -10.803223, -17.639160
1090713, 0.151489, 0.966675, -0.160400, 20.690918, -7.507326, -12.573246
1090733, 0.145386, 0.951782, -0.228882, 14.221195, -2.502441, -4.394531
1090753, 0.177612, 0.952271, -0.223267, 8.239746, 1.892090, -0.854492
1090773, 0.219971, 0.954102, -0.212524, 3.295899, 3.784181, 0.000000
1090793, 0.248901, 0.960571, -0.183716, 0.061035, 1.464844, -1.586915
1090813, 0.261108, 0.964722, -0.161621, -1.037598, -0.732422, -4.516602
1090833, 0.260498, 0.968506, -0.158936, -1.220703, -1.281738, -8.544922
1090853, 0.235840, 0.973633, -0.140137, -0.366211, -2.075195, -11.779789
1090873, 0.217163, 0.971802, -0.146729, 1.098633, -4.394531, -12.695316
1090893, 0.192017, 0.969604, -0.167725, 0.854492, -4.760742, -13.122562
1090913, 0.158691, 0.975464, -0.153076, 0.610352, -3.845216, -11.230473
1090933, 0.143555, 0.975342, -0.160522, 1.159668, -0.976563, -6.225588
1090953, 0.145630, 0.976929, -0.154175, 1.464844, 1.464844, -2.868653
1090973, 0.172729, 0.977539, -0.152344, 2.075195, 3.051759, -0.976563
1090993, 0.182739, 0.973145, -0.164063, 2.380371, 1.708985, 0.000000
1091013, 0.179810, 0.972412, -0.165283, 2.014160, 1.342773, 0.549316
1091033, 0.184448, 0.976318, -0.151123, 2.197266, 0.610352, 1.098633
1091053, 0.183960, 0.978027, -0.144287, 3.845216, -0.122070, 1.953125
1091073, 0.202148, 0.969482, -0.177612, 4.211426, -1.220703, 1.464844
1091093, 0.185913, 0.965332, -0.193115, 1.892090, -1.342773, 1.159668
1091113, 0.172729, 0.976807, -0.154297, 0.793457, -0.427246, 3.173829
1091133, 0.184448, 0.985840, -0.132324, 3.295899, -0.061035, 3.906251
1091153, 0.093750, 0.988647, -0.146851, 5.737307, 1.342773, 7.263186
1091173, -0.000244, 1.006714, -0.109009, 8.911133, 15.380863, 19.042969
1091193, 0.153809, 1.080566, 0.017700, 23.437508, 24.597176, 26.550301
1091213, 0.262939, 1.107910, 0.063477, 59.997574, 5.004883, 23.803719
1091233, 0.288696, 1.245850, -0.211792, 92.285187, -10.314941, 23.559578
1091253, 0.316162, 1.136597, -0.449097, 104.614288, -9.033203, 15.991215
1091273, 0.300903, 0.891602, -0.606445, 97.534210, -7.995607, -4.028320
1091293, 0.164063, 0.731812, -0.753784, 79.345703, -4.516602, -17.822266
1091313, -0.017212, 0.683716, -0.642578, 38.940430, 16.662598, -12.329105
1091333, -0.006714, 0.601685, -0.454956, 24.414070, 34.240723, 7.629396
1091353, 0.106079, 0.472656, -0.370483, 13.183598, 52.307144, 26.733406
1091373, 0.244629, 0.422974, -0.432007, -13.183598, 70.861816, 33.386230
1091393, 0.395020, 0.550537, -0.368530, -50.109879, 89.782745, 26.672371
1091413, 0.467773, 0.822754, -0.074097, -59.387222, 72.570801, 16.113281
1091433, 0.439819, 0.976440, 0.029663, -52.124039, 35.949707, 10.070801
1091453, 0.541626, 1.679199, -0.280884, -64.819336, 16.967773, 17.272949
1091473, 0.791626, 1.187378, 0.065796, -58.959976, -36.926270, 2.014160
1091493, 0.235352, 1.029419, 0.105713, -13.854984, -37.109375, -32.165527
1091513, 0.047485, 0.996216, -0.008179, 7.934572, -8.483887, -18.798828
1091533, 0.217285, 0.918945, -0.249023, 17.944336, 3.234864, -9.033203
1091553, 0.298706, 0.887695, -0.445068, 3.601075, -8.422852, -6.408693
1091573, 0.225098, 0.906860, -0.382080, -13.244633, -14.099125, -4.516602
1091593, 0.114502, 0.930664, -0.285889, -18.127441, -4.455566, 5.310059
1091613, 0.158569, 0.936523, -0.250977, -20.874023, 12.329105, 14.282230
1091653, 0.387207, 0.948364, -0.164917, -19.409180, 15.686039, 16.357422
1091713, 0.394165, 0.955078, -0.114624, 3.356935, -5.615236, -6.774904
1091753, 0.307251, 0.926270, -0.249634, 2.441406, -10.681152, -15.747074
1091773, 0.266357, 0.926025, -0.264282, -3.173829, -10.070801, -14.892582
1091793, 0.236816, 0.935547, -0.238159, -7.995607, -8.850098, -12.268070
1091813, 0.215576, 0.949097, -0.190308, -9.399414, -6.835939, -7.812502
1091833, 0.232300, 0.956055, -0.157471, -7.507326, -3.173829, -3.662110
1091853, 0.269165, 0.958862, -0.144043, -4.089355, -2.441406, -2.319336
1091873, 0.293457, 0.962646, -0.125610, 2.624512, -6.530764, -2.563477
1091893, 0.266846, 0.956787, -0.161255, 6.408693, -8.239746, -2.868653
1091913, 0.260376, 0.947021, -0.196045, 7.263186, -3.845216, -2.624512
1091933, 0.270142, 0.939331, -0.222290, 5.676271, -2.563477, -2.563477
1091973, 0.284668, 0.941162, -0.217651, 1.281738, -1.647950, -4.333496
1092013, 0.246704, 0.943115, -0.219360, -0.427246, -2.868653, -4.211426
1092053, 0.249878, 0.954956, -0.191406, -1.525879, -1.098633, -1.281738
1092093, 0.268799, 0.956543, -0.181763, 0.549316, -0.854492, -2.197266
1092113, 0.264648, 0.956177, -0.191528, 1.647950, -1.770020, -2.197266
1092133, 0.248413, 0.948364, -0.198120, 1.403809, -2.258301, -2.014160
1092153, 0.233643, 0.946899, -0.206665, 1.342773, -0.671387, -0.305176
1092173, 0.250854, 0.950195, -0.213745, -0.061035, 0.610352, 0.549316
1092193, 0.262085, 0.946777, -0.203247, -0.854492, 0.793457, 0.976563
1092213, 0.270874, 0.951172, -0.195190, -1.098633, 0.305176, 0.305176
1092233, 0.280396, 0.953857, -0.191040, -0.488281, -1.098633, -0.488281
1092253, 0.265747, 0.952271, -0.206299, -1.159668, -1.953125, -1.953125
1092273, 0.258301, 0.945313, -0.203979, -1.770020, -2.380371, -2.380371
1092293, 0.249146, 0.950439, -0.197754, -2.502441, -1.586915, -1.892090
1092313, 0.240234, 0.956909, -0.181274, -1.953125, -1.098633, -1.037598
1092333, 0.249878, 0.954590, -0.178711, -0.610352, -0.366211, 0.244141
1092353, 0.271851, 0.952393, -0.184814, 0.061035, -0.305176, -0.305176
1092373, 0.274414, 0.954590, -0.178833, 0.915528, -0.915528, -1.647950
1092393, 0.271729, 0.952271, -0.190308, 1.708985, -1.770020, -2.746582
1092413, 0.256470, 0.951660, -0.191895, 1.708985, -2.197266, -3.356935
1092433, 0.241089, 0.951416, -0.203491, 1.586915, -2.136230, -2.746582
1092453, 0.251465, 0.948486, -0.208008, -0.122070, -1.037598, -1.647950
1092473, 0.260986, 0.953003, -0.201782, -1.159668, -1.342773, -1.953125
1092493, 0.249268, 0.955933, -0.181519, -0.732422, -1.525879, -2.136230
1092513, 0.248779, 0.959961, -0.173462, 0.854492, -1.403809, -1.892090
1092533, 0.242188, 0.954590, -0.189575, 2.014160, -0.549316, -1.586915
1092553, 0.235718, 0.953491, -0.196045, 2.075195, -1.281738, -0.549316
1092573, 0.233887, 0.950928, -0.208252, 1.220703, -1.159668, 0.915528
1092593, 0.234009, 0.956055, -0.190552, 1.159668, 0.122070, 2.197266
1092613, 0.253906, 0.955566, -0.191406, 1.831055, 0.488281, 2.990724
1092633, 0.275146, 0.953247, -0.191040, 2.136230, -1.281738, 1.037598
1092653, 0.263306, 0.956055, -0.182373, 3.234864, -2.929688, 0.122070
1092673, 0.261353, 0.951660, -0.201416, 3.906251, -3.051759, -0.427246
1092693, 0.264526, 0.951904, -0.201050, 3.540040, -3.234864, -1.098633
1092713, 0.263550, 0.950317, -0.207031, 3.540040, -5.126953, -1.708985
1092733, 0.247192, 0.950928, -0.206421, 2.868653, -5.065918, -2.075195
1092753, 0.244141, 0.953125, -0.199463, 3.479005, -3.173829, -1.708985
1092773, 0.260132, 0.951904, -0.207031, 3.479005, -2.441406, -1.953125
1092793, 0.263672, 0.953491, -0.203613, 3.784181, -3.417970, -3.112794
1092813, 0.251831, 0.953247, -0.205444, 4.089355, -3.662110, -3.723145
1092833, 0.248413, 0.951538, -0.225708, 3.601075, -2.441406, -4.455566
1092853, 0.220581, 0.954224, -0.220215, 2.441406, -1.403809, -3.601075
1092873, 0.226440, 0.958130, -0.195923, 3.234864, -0.549316, -1.525879
1092893, 0.243774, 0.960327, -0.205444, 4.699707, 1.403809, -1.342773
1092913, 0.258789, 0.958862, -0.208130, 5.493164, 3.173829, -2.319336
1092933, 0.243652, 0.963867, -0.184814, 7.019045, 4.455566, -3.784181
1092953, 0.234863, 0.964600, -0.157104, 11.657719, 5.737307, -3.356935
1092973, 0.260376, 0.955688, -0.195923, 16.174316, 9.826660, -4.882813
1092993, 0.276611, 0.937256, -0.268188, 15.319828, 7.507326, -7.507326
1093013, 0.258057, 0.943604, -0.290649, 8.361816, -4.089355, -10.681152
1093033, 0.207031, 0.941284, -0.270142, 4.272461, -5.920412, -12.329105
1093053, 0.187866, 0.946899, -0.242554, 2.990724, -0.305176, -10.986328
1093073, 0.191406, 0.949463, -0.234863, 3.417970, 3.173829, -7.263186
1093093, 0.225830, 0.950928, -0.239746, 3.845216, 2.929688, -4.760742
1093113, 0.267944, 0.947998, -0.244751, 4.028320, -0.427246, -6.835939
1093133, 0.271240, 0.937500, -0.269409, 2.014160, 0.244141, -14.648441
1093153, 0.256226, 0.950317, -0.257324, -1.464844, 1.953125, -18.798828
1093173, 0.236816, 0.949341, -0.238159, -2.197266, 1.708985, -20.263672
1093193, 0.203491, 0.947998, -0.243774, -1.770020, 0.549316, -19.348145
1093213, 0.165649, 0.942505, -0.274048, -3.601075, 0.061035, -16.967773
1093233, 0.151611, 0.930664, -0.315674, -5.859377, 0.610352, -12.878422
1093253, 0.173584, 0.938477, -0.356445, -13.427738, 5.126953, -9.338379
1093273, 0.193970, 0.956421, -0.255005, -17.211914, 7.873537, -9.521484
1093293, 0.158569, 0.990845, -0.179321, -9.948730, 2.746582, -6.103518
1093313, 0.133545, 0.995483, -0.184570, -1.159668, 2.258301, -2.746582
1093333, 0.123169, 0.980347, -0.199463, 3.723145, 9.277344, 0.671387
1093353, 0.140259, 0.972900, -0.179199, 7.385256, 14.648441, 4.821777
1093373, 0.170410, 0.977295, -0.145752, 14.160160, 13.122562, 8.789063
1093393, 0.194946, 0.964111, -0.141235, 25.817879, 1.647950, 7.934572
1093413, 0.190552, 0.973511, -0.161377, 30.151375, -2.868653, 6.042482
1093433, 0.176758, 1.006592, -0.161743, 33.752441, -5.737307, 8.117676
1093453, 0.159912, 0.971191, -0.189575, 36.437988, -8.300781, 9.399414
1093473, 0.121704, 0.914795, -0.325684, 29.968269, -3.967286, 5.126953
1093493, 0.087158, 0.945313, -0.423950, 14.282230, 12.390141, 1.586915
1093513, 0.094482, 0.983765, -0.343262, 5.493164, 24.353035, 2.380371
1093533, 0.145020, 0.938110, -0.252197, 7.568361, 29.113777, 4.577637
1093553, 0.221191, 0.888062, -0.210571, 11.108402, 38.635254, 8.117676
1093573, 0.265991, 0.872559, -0.220581, 15.075687, 47.607437, 8.117676
1093593, 0.234375, 0.920532, -0.340942, 13.244633, 56.945816, 7.934572
1093613, 0.230957, 0.954590, -0.376709, 10.498047, 65.612793, 6.958010
1093633, 0.268066, 0.941528, -0.375977, 9.765625, 58.044449, 5.493164
1093653, 0.333374, 0.886597, -0.393555, 5.676271, 28.991707, 4.882813
1093673, 0.350220, 0.926758, -0.344849, -3.051759, 9.887695, -2.136230
1093693, 0.299561, 0.903564, -0.252075, -5.859377, 1.281738, -7.202150
1093713, 0.258179, 0.936768, -0.214355, -1.098633, -3.662110, -4.882813
1093733, 0.237671, 0.940796, -0.256714, 3.601075, -13.183598, 0.427246
1093753, 0.219971, 0.975464, -0.300659, 2.014160, -7.202150, 1.831055
1093773, 0.237793, 0.947998, -0.247925, 6.835939, 6.591799, -0.427246
1093793, 0.243164, 0.935425, -0.299561, 10.253906, 1.892090, -2.441406
1093813, 0.215820, 0.915894, -0.368164, 5.737307, 2.258301, 1.831055
1093833, 0.184448, 0.906860, -0.341919, -1.586915, 8.483887, 6.530764
1093853, 0.208130, 0.898560, -0.287354, -4.272461, 22.766121, 6.896975
1093873, 0.237671, 0.926147, -0.260864, -3.356935, 26.977547, 6.164553
1093893, 0.289917, 0.950195, -0.254150, 1.342773, 11.718754, 9.155273
1093913, 0.338257, 0.950806, -0.284180, 1.892090, -5.371094, 10.192871
1093933, 0.345459, 0.914307, -0.288940, 2.197266, -17.150879, 7.324221
1093953, 0.367554, 0.888672, -0.300781, 3.295899, -45.288101, 3.723145
1093973, 0.323853, 0.891968, -0.331177, 1.098633, -58.898941, -1.281738
1093993, 0.277222, 0.885620, -0.331055, -3.112794, -57.495132, -5.676271
1094013, 0.246948, 0.889648, -0.301758, -5.310059, -50.170914, -8.483887
1094033, 0.238281, 0.901245, -0.307129, -5.004883, -53.283707, -9.033203
1094053, 0.211060, 0.986450, -0.356079, -6.530764, -49.255386, -7.629396
1094073, 0.217041, 0.976807, -0.328125, -9.643555, -44.616714, -3.417970
1094093, 0.237915, 0.939209, -0.261475, -7.812502, -36.071777, -6.164553
1094113, 0.220581, 0.945068, -0.245239, -2.868653, -27.648933, -10.131836
1094133, 0.201050, 0.940430, -0.283691, 1.342773, -19.042969, -10.375977
1094153, 0.184937, 0.926636, -0.342896, 0.854492, -12.573246, -10.681152
1094173, 0.190674, 0.919312, -0.348755, -2.258301, -11.535648, -8.911133
1094193, 0.190552, 0.936523, -0.341553, -4.577637, -7.446291, -9.460449
1094213, 0.186401, 0.940308, -0.313721, -5.065918, -6.835939, -9.277344
1094233, 0.186157, 0.941650, -0.315552, -4.638672, -5.310059, -9.826660
1094253, 0.166504, 0.937622, -0.319824, -5.065918, -5.126953, -9.521484
1094273, 0.138062, 0.941650, -0.305786, -5.187988, -3.723145, -7.446291
1094293, 0.135742, 0.946167, -0.308960, -4.577637, -2.258301, -4.211426
1094313, 0.143921, 0.945801, -0.306519, -4.577637, 1.403809, -2.380371
1094333, 0.157837, 0.951660, -0.285400, -2.563477, 3.173829, -0.427246
1094353, 0.177612, 0.950684, -0.293823, -1.281738, 1.770020, -0.427246
1094373, 0.184326, 0.945801, -0.299194, -0.305176, -0.366211, -0.549316
1094393, 0.173828, 0.940308, -0.318726, -1.098633, 0.000000, -1.281738
1094413, 0.154785, 0.944336, -0.310913, -1.892090, 0.854492, -0.671387
1094433, 0.149658, 0.946411, -0.301025, -2.319336, 1.953125, 1.220703
1094453, 0.161011, 0.952515, -0.281494, -1.159668, 2.441406, 2.685547
1094473, 0.170776, 0.950562, -0.280640, 0.793457, 2.746582, 3.295899
1094493, 0.167725, 0.947632, -0.292480, 1.892090, 3.845216, 3.234864
1094513, 0.149170, 0.946167, -0.291870, 2.502441, 5.187988, 4.699707
1094533, 0.156128, 0.941162, -0.314209, 2.197266, 9.277344, 8.300781
1094553, 0.192871, 0.936646, -0.319214, 0.915528, 9.338379, 9.155273
1094573, 0.217773, 0.937256, -0.315430, -0.488281, 5.493164, 8.422852
1094593, 0.208862, 0.938843, -0.306274, -1.403809, 2.868653, 7.385256
1094613, 0.206543, 0.940308, -0.291870, -0.976563, 1.892090, 6.774904
1094633, 0.214478, 0.938232, -0.307373, -1.037598, 1.037598, 5.920412
1094653, 0.206421, 0.938232, -0.301758, -1.953125, 1.159668, 5.249023
1094673, 0.197510, 0.946167, -0.273438, -0.854492, 2.563477, 5.126953
1094693, 0.197510, 0.944092, -0.282104, 1.037598, 4.028320, 5.676271
1094713, 0.206909, 0.938965, -0.299194, 0.732422, 5.432129, 6.103518
1094733, 0.217529, 0.938965, -0.288452, 1.037598, 5.615236, 6.225588
1094773, 0.248535, 0.934082, -0.302612, 0.427246, 1.159668, 2.929688
1094813, 0.220947, 0.937378, -0.292603, 1.098633, 0.000000, 1.220703
1094833, 0.226929, 0.932007, -0.314453, 0.305176, 0.122070, 0.732422
1094853, 0.217163, 0.932129, -0.306641, -1.281738, -1.220703, 0.976563
1094873, 0.211060, 0.937256, -0.294312, -1.586915, -1.525879, 1.708985
1094893, 0.212646, 0.937378, -0.292114, -1.403809, -0.122070, 2.441406
1094913, 0.217529, 0.936157, -0.287964, -0.854492, 1.281738, 2.990724
1094933, 0.225952, 0.937500, -0.291016, -0.549316, 1.281738, 3.295899
1094953, 0.228394, 0.935669, -0.290527, -0.305176, 1.342773, 3.112794
1094973, 0.233154, 0.934692, -0.294189, -0.427246, 1.037598, 2.990724
1094993, 0.235718, 0.937500, -0.283447, -0.183106, -0.061035, 2.624512
1095013, 0.232910, 0.936768, -0.288208, 0.305176, 0.122070, 2.258301
1095033, 0.235229, 0.935059, -0.289551, 0.488281, 0.976563, 1.831055
1095053, 0.243408, 0.933716, -0.291504, 0.610352, 0.427246, 1.281738
1095073, 0.232788, 0.933716, -0.296875, 0.366211, -0.305176, 0.915528
1095093, 0.227417, 0.934326, -0.290527, -0.366211, 0.488281, 1.464844
1095113, 0.243408, 0.934204, -0.293213, -0.305176, -0.732422, 1.464844
1095133, 0.239380, 0.935181, -0.287964, -0.610352, -1.220703, 0.732422
1095153, 0.225342, 0.937378, -0.283691, 0.000000, 0.244141, 0.793457
1095173, 0.235352, 0.933350, -0.290161, 0.427246, 0.610352, 1.281738
1095193, 0.245239, 0.933716, -0.297363, -0.183106, -0.488281, 0.915528
1095213, 0.235474, 0.936157, -0.285278, -0.244141, -0.976563, 0.671387
1095233, 0.230957, 0.937744, -0.282471, 0.549316, -0.671387, 0.915528
1095253, 0.226563, 0.936279, -0.286377, 0.915528, 0.061035, 1.586915
1095273, 0.232544, 0.935425, -0.290039, 1.159668, 0.915528, 2.075195
1095293, 0.236694, 0.932861, -0.292480, 0.671387, 1.342773, 2.624512
1095313, 0.245728, 0.929688, -0.299683, 0.122070, 0.183106, 2.685547
1095333, 0.238037, 0.932739, -0.290405, -0.671387, -0.183106, 2.563477
1095353, 0.235962, 0.933472, -0.284058, 0.061035, 0.244141, 2.990724
1095373, 0.241699, 0.933228, -0.292114, -0.305176, 0.976563, 3.112794
1095393, 0.242676, 0.933472, -0.282593, -0.061035, 1.220703, 3.356935
1095413, 0.251221, 0.933350, -0.283813, 0.549316, 1.464844, 3.295899
1095433, 0.264160, 0.930298, -0.290039, 0.549316, 1.220703, 2.502441
1095453, 0.272583, 0.931885, -0.290161, 0.244141, 0.183106, 0.732422
1095473, 0.249878, 0.931763, -0.288208, 0.183106, -0.305176, -0.427246
1095493, 0.246338, 0.931519, -0.289063, 0.305176, -0.488281, -0.122070
1095513, 0.250366, 0.930786, -0.292358, -0.122070, -0.610352, -0.122070
1095533, 0.241089, 0.931396, -0.286743, -0.183106, -0.488281, 0.244141
1095553, 0.239990, 0.929810, -0.290649, -0.671387, 0.732422, 0.976563
1095573, 0.247192, 0.935181, -0.272949, -0.427246, 0.488281, 1.647950
1095593, 0.249023, 0.930664, -0.287109, 0.427246, 0.854492, 2.014160
1095613, 0.267700, 0.932251, -0.281128, -0.061035, 0.732422, 1.342773
1095633, 0.248901, 0.934326, -0.283569, 1.525879, 0.183106, 0.488281
1095653, 0.251709, 0.926392, -0.296387, 0.976563, 0.366211, 0.915528
1095673, 0.253418, 0.930420, -0.289307, -0.427246, -0.061035, 0.732422
1095693, 0.257813, 0.930420, -0.279541, 0.000000, -0.305176, 0.976563
1095713, 0.263916, 0.930298, -0.293701, -0.122070, -0.122070, 0.122070
1095733, 0.251587, 0.930542, -0.285156, -0.366211, -0.122070, -0.061035
1095753, 0.255493, 0.930664, -0.287231, -0.366211, -0.183106, 0.061035
1095773, 0.252441, 0.930176, -0.276855, -0.122070, -0.366211, 0.000000
1095793, 0.257080, 0.932007, -0.286255, 0.305176, -0.915528, 0.305176
1095813, 0.259521, 0.929688, -0.286865, 0.122070, -0.610352, -0.183106
1095833, 0.251953, 0.929688, -0.288452, -0.122070, -0.793457, -0.122070
1095853, 0.249756, 0.931885, -0.280518, 0.305176, -0.427246, 0.488281
1095873, 0.261719, 0.930786, -0.286377, 0.305176, 0.061035, 0.305176
1095893, 0.267090, 0.928223, -0.290649, -0.061035, -0.183106, -0.610352
1095913, 0.252197, 0.932007, -0.285889, -0.427246, -0.488281, -0.854492
1095933, 0.250610, 0.931030, -0.281250, -0.061035, -0.793457, -0.366211
1095953, 0.254883, 0.932251, -0.281982, -0.122070, -0.427246, -0.183106
1095973, 0.258057, 0.931274, -0.282471, 0.244141, -1.220703, -0.122070
1095993, 0.258667, 0.930176, -0.286743, 0.061035, -1.403809, -0.366211
1096013, 0.252808, 0.930786, -0.284302, 0.122070, -0.915528, -0.427246
1096033, 0.255371, 0.930664, -0.286011, 0.000000, -0.549316, -0.427246
1096053, 0.260498, 0.930908, -0.286865, -0.183106, -1.220703, -0.671387
1096073, 0.253296, 0.932983, -0.280151, -0.305176, -1.403809, -0.915528
1096093, 0.248535, 0.934082, -0.278442, 0.366211, -0.976563, -0.488281
1096113, 0.249268, 0.931152, -0.283691, 0.549316, -0.305176, -0.183106
1096133, 0.250488, 0.930664, -0.284058, 0.427246, -0.549316, 0.183106
1096153, 0.251587, 0.932617, -0.282593, 0.427246, -0.061035, 0.305176
1096173, 0.258667, 0.931030, -0.282837, 0.793457, 0.488281, 0.122070
1096193, 0.269409, 0.929810, -0.291138, 0.427246, -0.488281, -0.488281
1096213, 0.265015, 0.927612, -0.288696, -0.244141, -2.014160, -1.220703
1096233, 0.255859, 0.932373, -0.282837, -0.610352, -1.831055, -1.892090
1096253, 0.254761, 0.930786, -0.285522, -0.488281, -1.708985, -1.953125
1096273, 0.260254, 0.931763, -0.285278, -0.854492, -1.892090, -2.441406
1096293, 0.251953, 0.932129, -0.281128, -0.793457, -1.342773, -2.807618
1096313, 0.243896, 0.933838, -0.281982, -0.488281, -1.098633, -2.746582
1096333, 0.240112, 0.932129, -0.284058, -0.732422, -1.037598, -1.953125
1096353, 0.246948, 0.933716, -0.281372, -0.854492, -0.976563, -1.464844
1096373, 0.243652, 0.935059, -0.279297, -0.610352, -0.976563, -1.220703
1096393, 0.252808, 0.933716, -0.282349, -0.610352, -1.281738, -1.159668
1096413, 0.257080, 0.932251, -0.290649, -1.159668, -2.319336, -1.525879
1096433, 0.247192, 0.930786, -0.291748, -2.685547, -4.272461, -2.075195
1096453, 0.237427, 0.933838, -0.285767, -3.417970, -3.662110, -1.831055
1096473, 0.238647, 0.933472, -0.289429, -4.211426, -3.906251, -1.159668
1096493, 0.238525, 0.934082, -0.281616, -5.004883, -3.601075, -0.854492
1096513, 0.231934, 0.936890, -0.276123, -5.187988, -2.990724, -0.122070
1096533, 0.231812, 0.937134, -0.273682, -5.126953, -3.051759, 0.793457
1096553, 0.220825, 0.935669, -0.270020, -5.249023, -3.845216, 2.563477
1096573, 0.206055, 0.944824, -0.253784, -4.577637, -2.136230, 4.638672
1096593, 0.192505, 0.947876, -0.236084, -2.136230, 2.075195, 7.873537
1096613, 0.232178, 0.943604, -0.242065, 1.464844, 9.399414, 11.535648
1096633, 0.275879, 0.942017, -0.237549, 3.540040, 12.023930, 10.986328
1096653, 0.314087, 0.939941, -0.241577, 5.920412, 10.559082, 8.178711
1096673, 0.340576, 0.935791, -0.251099, 7.385256, 5.798342, 3.723145
1096693, 0.336182, 0.931396, -0.265625, 8.239746, -1.525879, -0.976563
1096713, 0.308960, 0.925781, -0.288696, 7.629396, -7.080080, -4.455566
1096733, 0.260254, 0.922974, -0.300049, 5.676271, -6.530764, -6.042482
1096753, 0.245117, 0.923340, -0.303833, 3.784181, -4.699707, -5.187988
1096773, 0.247559, 0.920288, -0.316040, 1.037598, -3.845216, -4.211426
1096793, 0.237061, 0.924072, -0.307617, -1.831055, -1.770020, -3.479005
1096813, 0.250000, 0.931396, -0.280518, -3.234864, 0.793457, -1.464844
1096833, 0.269897, 0.936157, -0.265137, -3.051759, 1.159668, -1.953125
1096853, 0.289429, 0.939575, -0.250854, -1.159668, 0.000000, -3.784181
1096873, 0.296997, 0.934326, -0.272705, -0.122070, -1.770020, -6.958010
1096893, 0.280396, 0.937378, -0.271240, -0.244141, -1.464844, -10.131836
1096913, 0.243286, 0.939819, -0.268066, 0.549316, -2.990724, -11.047363
1096933, 0.206909, 0.939331, -0.274658, 0.793457, -1.464844, -8.911133
1096953, 0.212036, 0.941772, -0.266235, 1.159668, 2.868653, -6.896975
1096973, 0.264526, 0.949707, -0.247803, 3.112794, 5.249023, -7.324221
1096993, 0.282959, 0.940063, -0.282959, 4.699707, -3.784181, -11.291508
1097013, 0.244385, 0.942261, -0.279907, 4.028320, -6.896975, -13.000492
1097033, 0.214722, 0.946167, -0.272949, 5.004883, -7.446291, -12.512211
1097053, 0.163208, 0.952637, -0.216309, 13.732914, -8.361816, -4.516602
1097073, 0.169556, 0.936768, -0.284790, 18.859863, -9.521484, 2.929688
1097093, 0.218384, 0.929443, -0.388306, 14.221195, -2.075195, 4.150391
1097113, 0.266846, 0.950195, -0.394287, 5.676271, -4.638672, 0.793457
1097133, 0.254517, 0.966064, -0.343872, 1.464844, -16.357422, -2.502441
1097153, 0.210693, 0.954590, -0.300781, 3.479005, -20.629883, -4.760742
1097173, 0.186523, 0.911011, -0.318481, 5.615236, -17.028809, -6.713869
1097193, 0.150391, 0.867310, -0.353882, 0.305176, -6.896975, -3.845216
1097213, 0.151367, 0.851440, -0.345337, -6.713869, -2.502441, -0.854492
1097233, 0.164673, 0.854492, -0.306152, -12.023930, 0.488281, 2.868653
1097253, 0.174316, 0.883789, -0.287231, -15.808109, 0.976563, 8.117676
1097273, 0.175659, 0.931519, -0.264526, -17.822266, 2.075195, 12.573246
1097293, 0.207031, 0.988647, -0.238892, -14.892582, 3.967286, 13.977055
1097313, 0.293701, 1.072876, -0.232788, -8.300781, -3.356935, 11.352543
1097333, 0.283203, 0.953003, -0.239624, -2.197266, -9.155273, 7.324221
1097353, 0.266235, 0.921143, -0.294800, -2.319336, -7.141115, 3.295899
1097373, 0.244995, 0.944336, -0.264893, -2.136230, -11.901859, 0.183106
1097393, 0.227905, 0.943848, -0.287964, -1.403809, -12.268070, 0.000000
1097413, 0.227783, 0.944458, -0.294067, -2.014160, -9.887695, -0.976563
1097433, 0.206421, 0.931763, -0.295776, -3.173829, -8.483887, -0.183106
1097453, 0.209229, 0.858887, -0.284790, -4.821777, -6.591799, -0.366211
1097473, 0.261963, 1.059937, -0.301392, -5.981447, 0.732422, -0.549316
1097493, 0.233521, 0.947998, -0.228516, -1.892090, -9.582520, -2.624512
1097513, 0.174194, 0.909668, -0.275146, -1.159668, -5.737307, 0.244141
1097533, 0.270630, 0.952026, -0.265991, -0.549316, -1.708985, -2.441406
1097553, 0.232422, 0.934814, -0.267578, 0.122070, -6.652834, -3.601075
1097573, 0.221191, 0.949463, -0.279175, 1.342773, -11.413578, -5.432129
1097593, 0.161255, 0.941895, -0.285645, 1.037598, -7.385256, -3.662110
1097613, 0.180054, 0.942139, -0.273682, -0.549316, -1.342773, -0.488281
1097633, 0.191040, 0.953369, -0.259277, 2.502441, 0.122070, 1.037598
1097653, 0.204590, 0.940674, -0.290894, 3.112794, 0.061035, 2.380371
1097673, 0.222900, 0.936279, -0.301636, 1.586915, 1.098633, 1.831055
1097693, 0.210449, 0.935547, -0.300903, 0.061035, 1.525879, 1.342773
1097713, 0.230835, 0.940552, -0.298584, -2.746582, 3.417970, 1.037598
1097733, 0.232910, 0.940308, -0.288086, -2.197266, 1.159668, -0.061035
1097753, 0.228516, 0.942627, -0.275879, -3.723145, -1.647950, -1.953125
1097773, 0.211792, 0.950195, -0.250488, -2.014160, -1.281738, -2.136230
1097793, 0.209473, 0.947021, -0.261597, -0.061035, -1.037598, -1.708985
1097813, 0.203491, 0.945679, -0.277222, 0.488281, -0.732422, -1.281738
1097833, 0.201538, 0.943115, -0.283691, -0.061035, -0.305176, -0.061035
1097853, 0.221191, 0.937744, -0.300171, -1.403809, -0.366211, 0.183106
1097873, 0.226074, 0.940918, -0.283325, -2.929688, -0.122070, -0.793457
1097893, 0.227539, 0.947266, -0.269043, -2.746582, -1.770020, -1.586915
1097913, 0.210815, 0.946533, -0.266113, -2.380371, -2.563477, -1.953125
1097933, 0.191528, 0.950317, -0.259277, -1.403809, -1.403809, -1.098633
1097953, 0.200195, 0.948853, -0.258911, 0.549316, 1.281738, 1.220703
1097973, 0.218262, 0.946655, -0.268066, 1.220703, 0.671387, 1.586915
1097993, 0.224243, 0.942749, -0.276611, 1.159668, -0.244141, 0.915528
1098013, 0.219971, 0.940308, -0.280884, 0.488281, -0.671387, 0.488281
1098033, 0.210938, 0.945068, -0.277954, -0.244141, -0.854492, 0.427246
1098053, 0.198608, 0.944702, -0.269287, -0.061035, -0.549316, 1.464844
1098073, 0.215698, 0.943726, -0.270386, 0.061035, 0.427246, 2.014160
1098093, 0.227417, 0.941895, -0.275391, -0.122070, -0.366211, 1.586915
1098113, 0.222412, 0.941650, -0.280151, -0.549316, -2.014160, 1.037598
1098133, 0.202393, 0.941772, -0.277710, -1.770020, -3.540040, 1.831055
1098153, 0.185669, 0.943359, -0.268921, -2.136230, -2.136230, 3.967286
1098173, 0.210083, 0.943359, -0.268311, -1.525879, -0.061035, 5.310059
1098193, 0.231812, 0.944214, -0.271606, -1.831055, 0.793457, 4.821777
1098213, 0.231323, 0.946777, -0.256714, -1.403809, -0.427246, 4.272461
1098233, 0.237427, 0.946899, -0.254150, -0.305176, -0.549316, 3.723145
1098253, 0.250244, 0.946533, -0.257935, 0.671387, -0.549316, 2.014160
1098273, 0.258301, 0.940918, -0.268433, 0.854492, -1.708985, 0.122070
1098293, 0.253784, 0.939331, -0.279785, 0.305176, -3.540040, -2.258301
1098313, 0.239380, 0.938599, -0.281738, -0.915528, -4.882813, -3.540040
1098333, 0.215942, 0.942993, -0.277344, -2.380371, -5.920412, -3.784181
1098353, 0.201904, 0.943726, -0.274048, -3.234864, -4.699707, -2.929688
1098373, 0.183716, 0.947266, -0.259766, -2.929688, -2.014160, -0.976563
1098393, 0.210693, 0.942505, -0.268555, -2.685547, 1.098633, 0.671387
1098413, 0.228027, 0.941528, -0.279053, -3.906251, 0.305176, 0.305176
1098433, 0.212402, 0.950195, -0.253052, -4.150391, -1.037598, 0.610352
1098453, 0.208374, 0.949951, -0.248901, -3.173829, 0.854492, 1.342773
1098473, 0.229004, 0.949097, -0.255127, -2.380371, -0.183106, 1.831055
1098493, 0.240234, 0.946655, -0.260376, -2.624512, -0.732422, 0.610352
1098513, 0.228516, 0.950195, -0.250610, -1.831055, -2.319336, -0.671387
1098533, 0.214478, 0.937988, -0.249512, -1.892090, -1.403809, -0.549316
1098553, 0.229004, 0.959229, -0.258911, -1.403809, -0.610352, -0.671387
1098573, 0.219238, 0.942505, -0.253418, -1.464844, 1.708985, -1.770020
1098593, 0.215088, 0.942871, -0.263306, -1.953125, -0.183106, -0.976563
1098613, 0.210205, 0.949951, -0.248169, -2.624512, 0.854492, -0.366211
1098633, 0.223877, 0.949951, -0.243774, -1.708985, 1.525879, -0.061035
1098653, 0.245117, 0.947510, -0.258423, -1.831055, 0.000000, -1.037598
1098673, 0.228516, 0.944214, -0.270020, -2.929688, 0.061035, -2.685547
1098693, 0.192017, 0.943481, -0.269653, -5.065918, 3.845216, -0.610352
1098713, 0.074463, 0.948120, -0.267700, -7.690432, 15.502934, 7.446291
1098733, 0.083374, 0.947876, -0.276123, -9.948730, 34.729004, 15.441898
1098753, 0.262085, 1.042480, -0.195679, -0.183106, 22.644051, 5.004883
1098773, 0.221924, 1.041260, -0.229980, 23.498543, 15.747074, -22.644051
1098793, 0.143433, 0.980469, -0.365234, 36.437988, 17.272949, -47.119156
1098813, -0.053955, 0.906860, -0.507446, 31.616219, 24.414070, -55.114761
1098833, -0.187500, 0.897949, -0.497559, 13.732914, 36.010742, -38.635254
1098853, -0.159668, 0.904175, -0.388184, -1.953125, 55.297867, -14.465336
1098873, 0.039063, 0.955566, -0.246826, -4.699707, 73.547363, 3.967286
1098893, 0.371460, 0.958984, -0.155884, 2.197266, 74.157715, 4.028320
1098913, 0.464844, 0.926392, -0.140991, -0.305176, 64.392090, -0.366211
1098933, 0.511353, 0.914673, -0.106567, -7.629396, 50.964371, -1.525879
1098953, 0.597900, 0.900024, -0.075195, -19.836426, 37.597656, 6.347658
1098973, 0.901855, 0.949951, -0.054321, -32.714844, 10.314941, -7.385256
1098993, 1.059326, 1.007324, 0.115479, -18.615723, -46.081558, -62.622086
1099013, 0.531982, 0.926514, 0.055298, 7.995607, -100.585968, -83.801270
1099033, 0.053711, 0.860596, -0.150269, 12.756351, -76.660156, -35.644531
1099053, 0.017822, 0.869507, -0.317749, -4.516602, -26.977547, 17.028809
1099073, 0.162598, 0.915894, -0.234131, -15.136723, 5.187988, 55.664078
1099093, 0.451172, 0.943359, -0.295532, -15.075687, -6.774904, 43.212891
1099113, 0.435791, 0.924805, -0.301025, -19.470215, -29.785164, 22.583015
1099133, 0.242188, 0.949951, -0.242432, -24.108894, -41.015625, 13.427738
1099153, 0.112305, 0.999878, -0.198242, -21.484375, -46.630875, 6.408693
1099173, 0.006470, 1.036133, -0.169434, -14.221195, -46.813980, 0.915528
1099193, -0.026123, 1.044312, -0.233154, -13.732914, -46.264664, -18.859863
1099213, -0.167847, 1.024170, -0.156128, -12.023930, -43.701172, -27.893074
1099233, -0.343750, 1.046021, -0.125488, -10.314941, -19.958496, -24.108894
1099253, -0.342651, 1.027344, -0.115479, -6.347658, -7.324221, -12.756351
1099273, -0.204346, 1.014893, -0.060181, -5.615236, 26.184090, 23.742683
1099293, -0.034912, 1.028198, 0.029541, -2.075195, 36.621094, 36.499023
1099313, -0.027710, 1.046875, 0.172241, 24.169930, 38.574219, 53.955093
1099333, 0.089966, 0.994507, 0.058594, 46.142593, 44.982925, 66.467285
1099353, 0.338501, 0.977295, -0.183472, 48.034683, 33.508301, 54.626480
1099393, 0.467163, 0.979614, -0.259033, -1.525879, -9.582520, -20.690918
1099413, 0.226318, 0.990845, -0.139893, -10.375977, -27.343758, -38.452148
1099433, 0.030029, 1.015991, -0.025391, -8.178711, -21.423340, -36.743164
1099453, -0.001343, 1.006714, -0.089111, -6.164553, -5.371094, -27.893074
1099473, 0.044678, 1.011719, -0.044556, -3.662110, -5.126953, -18.493652
1099493, 0.072021, 0.992554, -0.060669, 0.488281, -5.371094, -7.324221
1099513, 0.170166, 0.981689, -0.110962, 3.295899, -6.774904, -2.014160
1099533, 0.177612, 0.971680, -0.112671, 12.268070, -6.958010, 4.943848
1099553, 0.193604, 0.946045, -0.183105, 23.193367, -4.211426, 19.042969
1099573, 0.330322, 0.877075, -0.345703, 27.099617, -2.624512, 26.489265
1099593, 0.388062, 0.876709, -0.402222, 25.634773, -1.220703, 26.428230
1099613, 0.381592, 0.850464, -0.459717, 23.925789, -0.427246, 26.245125
1099653, 0.377441, 0.861572, -0.451172, 11.657719, 2.502441, 23.803719
