timestamp,ax,ay,az,gx,gy,gz
391455, -0.169800, 0.924561, -0.408813, -11.352543, -13.549809, -12.023930
391475, -0.184937, 0.924561, -0.394165, -5.371094, -8.789063, 1.220703
391495, -0.034912, 0.936646, -0.384155, -0.366211, 0.427246, 3.662110
391515, 0.067505, 0.953735, -0.367310, 9.460449, 17.456055, -7.751467
391535, -0.054932, 0.992065, -0.508545, 10.131836, 32.348633, -17.333984
391555, 0.157593, 1.333496, -0.385986, 19.348145, 42.846680, 3.417970
391575, -0.380005, 1.045654, -0.171143, 59.814468, -8.850098, -26.367195
391595, -0.487671, 0.837769, -0.518555, 31.433113, 24.353035, 5.310059
391615, -0.220825, 0.932373, -0.573853, 43.334961, 31.494148, -3.906251
391635, -0.179443, 0.853638, -0.571289, 24.902351, 38.757324, -20.385742
391655, -0.242310, 0.810181, -0.525024, 15.747074, 42.053223, -28.625496
391675, -0.197632, 0.808594, -0.507324, 10.559082, 47.851578, -24.230965
391695, -0.162598, 0.712402, -0.521118, 6.530764, 53.405777, -25.512703
391715, -0.033325, 0.680298, -0.522705, 0.854492, 59.265152, -31.982430
391735, 0.060669, 0.714722, -0.535767, -2.502441, 57.983414, -45.715347
391755, 0.038086, 0.714722, -0.562134, -7.507326, 54.260269, -63.110367
391775, -0.071045, 0.702759, -0.586304, -16.113281, 51.940933, -68.908691
391795, -0.057129, 0.867188, -0.512451, -7.263186, 67.382813, -49.804703
391815, 0.080811, 0.854614, -0.572754, 2.014160, 76.232910, -34.240723
391835, 0.143555, 0.767090, -0.642822, -1.586915, 74.829102, -37.475586
391855, 0.131470, 0.787231, -0.593262, -7.263186, 67.504883, -42.297363
391875, 0.145874, 0.905518, -0.517700, -9.765625, 44.555679, -29.235847
391895, 0.178223, 0.876221, -0.469116, -1.831055, 27.526863, -17.089844
391915, 0.191528, 0.817261, -0.525513, -0.305176, 19.897461, -17.578125
391935, 0.051514, 0.784058, -0.549805, -11.596684, 16.418457, -18.310547
391955, 0.012573, 0.842041, -0.478882, -18.676758, 10.620117, -14.831547
391975, 0.050537, 0.903320, -0.439209, -17.150879, 1.342773, 1.220703
391995, 0.034180, 0.976074, -0.499023, -12.329105, -4.333496, 0.549316
392015, -0.073608, 1.157837, -0.521729, -0.549316, -2.441406, -0.610352
392035, -0.167969, 0.885498, -0.626099, -2.502441, 0.244141, 4.577637
392055, -0.029419, 0.854858, -0.498657, -4.394531, 2.441406, 8.544922
392075, -0.036133, 0.889404, -0.505859, -4.272461, -7.202150, 8.117676
392095, -0.075439, 0.904541, -0.498901, -2.075195, -6.835939, 8.911133
392115, -0.003906, 0.923706, -0.479370, 1.037598, -1.464844, 7.507326
392135, 0.049805, 0.878418, -0.552368, 2.563477, -3.234864, 1.037598
392155, 0.026245, 0.875488, -0.533569, -1.037598, -7.507326, -5.737307
392175, -0.121216, 0.880859, -0.491699, 0.244141, -5.554201, -5.737307
392195, -0.129028, 0.871338, -0.515259, 1.464844, 2.258301, -0.244141
392215, -0.032104, 0.885498, -0.516479, 0.488281, 4.821777, 1.708985
392235, 0.009033, 0.872070, -0.527222, 0.488281, -1.953125, -2.319336
392255, -0.065063, 0.877563, -0.508789, -1.342773, -5.249023, -2.014160
392275, -0.061157, 0.866333, -0.515869, -0.427246, -2.319336, -1.464844
392295, -0.048096, 0.878662, -0.521973, -0.427246, -0.549316, -2.685547
392315, -0.008057, 0.880371, -0.503296, -0.976563, -3.784181, -4.150391
392335, -0.031494, 0.872192, -0.519775, -2.197266, -2.563477, -7.080080
392355, -0.030518, 0.878296, -0.494385, -1.037598, -8.117676, -9.094238
392375, -0.173218, 0.885620, -0.477051, 1.281738, -5.859377, -3.723145
392395, -0.119019, 0.873047, -0.503174, 3.051759, 3.417970, 2.075195
392415, -0.000122, 0.869751, -0.525757, 2.014160, 2.929688, 0.183106
392435, -0.007202, 0.871704, -0.527100, 0.488281, -2.624512, -4.272461
392455, -0.093018, 0.877075, -0.498291, 0.122070, -5.493164, -4.821777
392475, -0.118652, 0.877686, -0.499878, 1.342773, -2.380371, -1.220703
392495, -0.068726, 0.876343, -0.501343, 2.258301, 0.976563, 0.061035
392515, -0.044556, 0.871826, -0.519043, 1.586915, -0.732422, -1.525879
392535, -0.077393, 0.874023, -0.509766, 1.953125, -0.854492, -1.892090
392555, -0.097900, 0.874023, -0.506226, 1.770020, 0.549316, -0.061035
392575, -0.075317, 0.871948, -0.520752, 1.770020, 2.075195, 1.342773
392595, -0.045898, 0.868774, -0.527344, 0.610352, 1.892090, 0.305176
392615, -0.033203, 0.874756, -0.506958, 0.183106, -0.244141, -1.953125
392635, -0.067993, 0.875610, -0.513550, 0.427246, -2.136230, -3.112794
392655, -0.116577, 0.874756, -0.500610, 1.342773, -1.342773, -0.915528
392675, -0.090332, 0.872070, -0.522705, 1.342773, 1.770020, 1.342773
392695, -0.049316, 0.870850, -0.518066, 0.610352, 2.380371, 0.854492
392715, -0.054077, 0.875854, -0.501709, 0.854492, 0.305176, -0.610352
392735, -0.076782, 0.874756, -0.509399, 1.953125, 1.159668, -0.793457
392755, -0.067017, 0.864624, -0.536133, 1.281738, 0.549316, -0.122070
392775, -0.071289, 0.862671, -0.524414, -0.793457, -1.525879, -0.305176
392795, -0.064697, 0.883057, -0.520752, -0.366211, -0.244141, -0.366211
392815, -0.065796, 0.870850, -0.480591, -0.183106, 0.000000, -0.671387
392835, -0.081055, 0.879028, -0.511963, 2.258301, 0.915528, -0.610352
392855, -0.050659, 0.861572, -0.542480, 0.549316, 1.342773, -0.793457
392875, -0.067139, 0.871094, -0.515015, -0.610352, -1.342773, -1.464844
392895, -0.100220, 0.877075, -0.494385, 0.366211, -0.488281, -0.244141
392915, -0.072632, 0.873169, -0.514160, 1.403809, 1.220703, 1.464844
392935, -0.029053, 0.868408, -0.530884, -0.366211, -1.342773, -1.464844
392955, -0.086304, 0.878052, -0.497681, -0.427246, -2.319336, -2.685547
392975, -0.089844, 0.871216, -0.510010, 1.037598, 0.793457, -0.610352
392995, -0.071777, 0.872559, -0.522461, 0.427246, -0.427246, 0.244141
393015, -0.053711, 0.869507, -0.515747, -0.244141, -0.793457, -0.427246
393035, -0.090698, 0.879395, -0.489014, 1.586915, 0.061035, -0.610352
393055, -0.059814, 0.868286, -0.519775, 2.136230, 2.502441, -0.366211
393075, -0.063599, 0.866333, -0.531372, 1.098633, 0.915528, -0.854492
393095, -0.055542, 0.860962, -0.556030, -1.892090, -2.624512, -0.915528
393115, -0.106567, 0.884399, -0.477417, 0.488281, -1.220703, 1.770020
393135, -0.052002, 0.876465, -0.496948, 1.892090, 0.732422, 1.037598
393155, -0.075439, 0.872192, -0.508545, 3.417970, 1.770020, 0.671387
393175, -0.075928, 0.865967, -0.531860, 2.807618, 2.929688, 1.342773
393195, -0.044922, 0.859497, -0.554932, -0.366211, 0.549316, 1.464844
393215, -0.066284, 0.876709, -0.496216, -0.854492, -2.014160, 0.427246
393235, -0.106323, 0.880615, -0.468994, 2.441406, 0.427246, 2.136230
393255, -0.042236, 0.869385, -0.520386, 4.089355, 1.281738, 3.051759
393275, -0.035156, 0.858765, -0.560303, 1.647950, -5.249023, 1.708985
393295, -0.021606, 0.861816, -0.550781, -1.403809, -16.113281, 2.929688
393315, -0.149780, 0.890991, -0.528320, -6.347658, -50.781265, 13.732914
393335, -0.021729, 0.908325, -0.457886, -2.441406, -48.767105, 42.968750
393355, 0.071533, 0.856812, -0.536987, -3.112794, -55.542007, 45.532242
393375, 0.064819, 0.842041, -0.601196, -6.713869, -49.255386, 27.709969
393395, -0.083496, 0.868652, -0.499756, -13.061527, -49.987808, 4.272461
393415, -0.398926, 0.906128, -0.377930, -7.568361, -16.967773, -4.943848
393435, -0.164551, 0.910645, -0.397949, 3.662110, 15.441898, 7.019045
393455, 0.050049, 0.878174, -0.515747, 4.882813, 16.235352, 2.990724
393475, 0.069702, 0.866699, -0.552612, 1.281738, 1.342773, -5.981447
393495, -0.181885, 0.893066, -0.458984, -1.403809, -0.671387, -5.310059
393515, -0.136841, 0.901855, -0.423218, 4.333496, 10.437012, 2.563477
393535, 0.021606, 0.869873, -0.535767, 6.530764, 5.249023, 1.403809
393555, -0.010254, 0.857056, -0.573975, -0.183106, -8.300781, -2.868653
393575, -0.166992, 0.888916, -0.470459, -1.220703, -3.845216, -0.549316
393595, -0.115356, 0.890137, -0.462769, 1.892090, 6.530764, 4.516602
393615, -0.052246, 0.889771, -0.468140, 5.065918, 7.141115, 4.882813
393635, -0.066162, 0.879395, -0.500244, 5.371094, 4.821777, 4.394531
393655, -0.106812, 0.876587, -0.502563, 5.065918, 7.751467, 7.263186
393675, -0.079224, 0.895508, -0.442749, 8.544922, 9.948730, 9.521484
393695, 0.061768, 0.859009, -0.560669, 9.216309, -1.892090, 7.019045
393715, -0.024170, 0.892944, -0.682007, 0.305176, -15.197758, 4.211426
393735, 0.100098, 0.888550, -0.601318, -37.902832, -45.715347, 5.432129
393755, -0.058472, 0.925293, -0.573242, -58.471695, -54.626480, 8.422852
393775, -0.140747, 0.901245, -0.545776, -89.477570, -60.852066, 16.845703
393795, -0.173584, 0.860107, -0.437988, -106.201202, -55.053726, 25.573738
393815, -0.052368, 0.839722, -0.465454, -102.661163, -41.992188, 26.489265
393835, -0.001953, 0.936401, -0.232178, -88.501007, -38.330078, 24.658211
393855, -0.031860, 0.868164, -0.487793, -91.186554, -41.198730, 22.399910
393875, 0.031860, 0.984619, -0.114868, -78.857422, -36.804199, 17.944336
393895, 0.089478, 1.036743, -0.069092, -36.987305, -24.475105, 1.220703
393915, 0.195190, 1.003540, -0.260620, -11.596684, -12.023930, -25.756844
393935, 0.068726, 1.040894, -0.316162, -14.282230, 10.986328, -47.912613
393955, 0.184082, 1.325684, 0.685791, 47.912613, 14.770512, -76.049805
393975, -0.603882, 1.202759, 0.317139, 206.970276, 21.850586, -95.825226
393995, -0.722168, 0.489014, -0.454590, 215.393127, 109.008820, -50.109879
394015, -0.165405, 0.247925, -0.867188, 162.048340, 147.399902, -16.723633
394035, 0.075317, 0.628418, -0.991699, 80.932617, 114.685089, -12.451176
394055, -0.056641, 0.893311, -0.517456, 42.419434, 109.008820, -23.620613
394075, -0.060059, 0.896362, -0.734375, 4.089355, 70.312500, 7.202150
394095, 0.023438, 1.076904, -0.495361, -17.395020, 14.953617, 10.192871
394115, -0.063721, 0.927368, -0.439087, -7.507326, 4.699707, 11.108402
394135, -0.053223, 0.919556, -0.440186, 0.305176, 11.474613, 8.972168
394155, -0.122559, 0.884521, -0.452026, 4.821777, 13.427738, 10.559082
394175, -0.110962, 0.906616, -0.414551, 13.183598, 25.207527, 14.953617
394195, 0.208496, 0.870483, -0.607544, 14.343266, 26.428230, 6.347658
394215, -0.174561, 0.860352, -0.711426, -27.465828, -17.028809, -21.240234
394235, -0.100342, 0.881836, -0.536987, -28.320320, 2.563477, -16.601563
394255, -0.142212, 0.868164, -0.609253, -43.945313, -8.850098, -15.747074
394275, -0.077515, 0.865479, -0.548706, -53.894058, -2.807618, -17.211914
394295, -0.102661, 0.888184, -0.326172, -60.729996, -6.958010, -24.475105
394315, 0.041504, 0.884155, -0.524170, -29.907234, 3.417970, -2.014160
394335, 0.154785, 0.927856, -0.340332, -17.028809, -5.187988, 5.554201
394355, 0.135620, 0.886108, -0.465698, -7.019045, -26.977547, 3.295899
394375, 0.031616, 0.883789, -0.528931, -4.577637, -52.307144, 2.868653
394395, -0.075684, 0.916382, -0.437378, -9.277344, -81.298828, 5.981447
394415, -0.292725, 0.942139, -0.348877, -5.798342, -88.562042, 18.981934
394435, -0.230957, 0.925171, -0.457031, -6.469728, -60.363785, 37.536621
394455, 0.178833, 0.906250, -0.553955, -20.019531, -70.251465, 30.090340
394475, 0.065308, 0.954468, -0.421509, -25.878914, -67.016602, 43.151855
394495, 0.160156, 0.951416, -0.315918, -10.498047, -63.598648, 63.659683
394515, -0.060425, 0.901733, -0.397949, -5.554201, -72.204590, 38.513184
394535, -0.224854, 0.939453, -0.329468, -14.404301, -65.795898, 23.254402
394555, -0.135864, 0.955200, -0.296997, -5.432129, -61.157242, 33.630371
394575, 0.027710, 0.964355, -0.317505, 5.432129, -65.307617, 39.306641
394595, 0.089478, 0.939819, -0.402954, 10.131836, -75.012207, 54.626480
394615, 0.064209, 0.897583, -0.459473, 1.892090, -75.256348, 40.466309
394635, -0.338745, 0.982544, -0.219116, -1.892090, -41.442871, 34.851074
394655, -0.051636, 0.954102, -0.313599, 7.080080, -32.226563, 42.236328
394675, -0.041992, 0.951538, -0.336426, 5.310059, -29.968269, 24.169930
394695, -0.123047, 0.940063, -0.349854, 2.441406, -17.456055, 8.911133
394715, -0.268066, 0.955322, -0.335449, 1.770020, 16.235352, 6.958010
394735, 0.165771, 0.933105, -0.396118, 2.319336, 28.503426, 6.469728
394755, 0.193359, 0.920044, -0.451172, -5.065918, 0.244141, -9.216309
394775, -0.048828, 0.952148, -0.337524, -5.065918, -5.737307, -9.765625
394795, -0.059937, 0.948486, -0.348145, -2.807618, -1.708985, -7.873537
394815, -0.057861, 0.935791, -0.388672, -3.173829, 9.826660, -6.591799
394835, 0.166138, 0.919800, -0.455200, -13.366703, 8.728027, -13.977055
394855, 0.172729, 0.915527, -0.456787, -22.949226, -2.075195, -28.503426
394875, -0.039917, 0.922485, -0.407471, -27.160652, 3.601075, -39.123535
394895, -0.182861, 0.905273, -0.476318, -38.635254, 17.822266, -36.315918
394915, -0.306885, 0.942627, -0.353027, -45.715347, 54.504410, -27.832039
394935, 0.013550, 0.962036, -0.268921, -44.982925, 92.529327, -27.954109
394955, 0.062256, 0.995728, -0.149048, -39.184570, 92.163116, -45.410172
394975, -0.211914, 1.012085, -0.105347, -23.620613, 106.262238, -44.921890
394995, -0.297119, 1.025024, -0.051270, -6.286623, 114.563019, -31.372078
395015, -0.077637, 1.014526, -0.091064, 19.958496, 135.986328, -19.775391
395035, 0.384644, 0.963623, -0.281860, 29.174812, 117.797882, -30.517586
