timestamp,ax,ay,az,gx,gy,gz
1577016, 0.582886, 0.527466, -0.640503, 0.671387, 0.305176, 0.366211
1577036, 0.585449, 0.526611, -0.648315, 1.159668, 0.000000, 1.708985
1577056, 0.587402, 0.510864, -0.649414, 0.427246, -0.549316, 0.427246
1577076, 0.578003, 0.499268, -0.626831, 0.732422, -0.305176, 0.854492
1577096, 0.594971, 0.516479, -0.645020, -0.549316, -2.380371, -0.671387
1577116, 0.594482, 0.538208, -0.626099, 0.610352, -0.671387, 2.258301
1577136, 0.596436, 0.522949, -0.630249, 1.281738, -1.464844, 3.784181
1577156, 0.583984, 0.503418, -0.630737, 1.525879, -0.793457, 3.112794
1577176, 0.575684, 0.501465, -0.652466, 0.183106, -1.159668, -0.488281
1577196, 0.585693, 0.518311, -0.651367, 0.732422, -1.403809, -1.281738
1577216, 0.577393, 0.522461, -0.649048, 1.159668, -1.281738, -0.366211
1577236, 0.593018, 0.519531, -0.635986, 0.854492, -1.220703, 0.732422
1577256, 0.592529, 0.517700, -0.626709, 1.586915, -1.281738, 0.854492
1577276, 0.595459, 0.505737, -0.634155, 1.525879, -1.037598, 0.549316
1577296, 0.589722, 0.501465, -0.635010, 0.061035, -0.488281, 0.854492
1577316, 0.584229, 0.506836, -0.640259, 0.061035, -0.549316, 0.427246
1577336, 0.584229, 0.505737, -0.654297, -0.244141, -0.488281, -0.915528
1577356, 0.579346, 0.508667, -0.647705, -0.488281, -0.976563, -1.586915
1577376, 0.589966, 0.523438, -0.641479, 0.061035, -0.732422, -1.464844
1577396, 0.589722, 0.523071, -0.636230, 0.793457, -0.854492, 0.244141
1577416, 0.591187, 0.518311, -0.630737, 1.159668, -1.098633, 0.793457
1577436, 0.586792, 0.508667, -0.636841, 1.464844, -1.342773, -0.183106
1577456, 0.583496, 0.502319, -0.643066, 0.366211, -0.793457, -0.793457
1577476, 0.585083, 0.509644, -0.643311, -0.305176, -1.220703, -0.915528
1577496, 0.588257, 0.517090, -0.645142, 0.061035, -1.220703, -0.244141
1577516, 0.585327, 0.518311, -0.646362, 0.793457, -1.159668, 0.244141
1577536, 0.583984, 0.516235, -0.641968, 1.037598, -0.793457, 0.488281
1577556, 0.586182, 0.500610, -0.636230, 0.427246, -0.854492, -1.403809
1577576, 0.591187, 0.505371, -0.640137, -0.244141, -1.342773, -2.014160
1577596, 0.584351, 0.519531, -0.640747, -0.427246, -1.281738, -0.915528
1577616, 0.582886, 0.522827, -0.644287, 0.488281, -1.464844, -0.549316
1577636, 0.583374, 0.516602, -0.644043, 0.549316, -1.770020, -0.976563
1577656, 0.581787, 0.512817, -0.638306, 0.915528, -1.647950, -1.464844
1577676, 0.576172, 0.507324, -0.644165, 0.427246, -1.647950, -1.892090
1577696, 0.582153, 0.513794, -0.646729, 0.244141, -1.464844, -2.197266
1577716, 0.582642, 0.518799, -0.648193, 0.488281, -0.854492, -1.525879
1577736, 0.582397, 0.516846, -0.636963, -0.061035, -0.732422, -0.366211
1577756, 0.587524, 0.515137, -0.636475, 0.366211, -0.915528, -0.305176
1577776, 0.583740, 0.514893, -0.642578, -0.366211, -0.671387, 0.061035
1577796, 0.581299, 0.521606, -0.641113, 0.061035, -0.976563, -0.061035
1577816, 0.572144, 0.518677, -0.649170, 0.549316, -0.732422, 0.244141
1577836, 0.584595, 0.509277, -0.646362, -0.183106, -0.549316, 0.061035
1577856, 0.574219, 0.524536, -0.644775, 0.305176, -0.915528, -0.244141
1577876, 0.594238, 0.499146, -0.633301, 0.549316, 0.427246, -0.732422
1577896, 0.577637, 0.513794, -0.641479, -1.098633, -0.671387, -1.831055
1577916, 0.590088, 0.527222, -0.634033, 0.427246, -0.854492, -0.610352
1577936, 0.579834, 0.526001, -0.647583, 0.122070, -0.854492, 1.098633
1577956, 0.576172, 0.509521, -0.640747, 0.610352, -0.976563, 0.549316
1577976, 0.583130, 0.507080, -0.644531, 0.061035, -0.793457, -0.366211
1577996, 0.580688, 0.512085, -0.646973, -0.366211, -0.610352, -1.525879
1578016, 0.581299, 0.505981, -0.636719, -0.854492, -0.244141, -1.953125
1578036, 0.580200, 0.508057, -0.642822, -1.281738, -1.098633, -3.173829
1578056, 0.577026, 0.514526, -0.641724, -1.831055, -0.671387, -3.662110
1578076, 0.579712, 0.518188, -0.649536, -1.647950, -0.671387, -4.333496
1578096, 0.573364, 0.513794, -0.646606, -2.258301, -0.976563, -4.089355
1578116, 0.577759, 0.518066, -0.642456, -3.662110, -1.525879, -5.065918
1578136, 0.575195, 0.505981, -0.636841, -3.601075, -0.854492, -5.920412
1578156, 0.578247, 0.492310, -0.638306, -4.699707, -0.488281, -7.690432
1578176, 0.571899, 0.520996, -0.643921, -5.187988, -0.427246, -8.422852
1578196, 0.566528, 0.570679, -0.644653, -0.061035, -0.732422, -9.521484
1578216, 0.549683, 0.565308, -0.661987, 2.075195, -1.037598, -8.483887
1578236, 0.554932, 0.551270, -0.625854, 1.342773, 0.183106, -3.845216
1578256, 0.522339, 0.537842, -0.616333, 2.075195, 10.437012, 1.403809
1578276, 0.594116, 0.522949, -0.625854, 1.159668, 10.620117, 2.075195
1578296, 0.571289, 0.530029, -0.613770, 5.981447, -5.126953, 6.225588
1578316, 0.607422, 0.540771, -0.657104, 4.821777, 5.065918, -4.577637
1578336, 0.555176, 0.521362, -0.632813, 7.751467, 3.479005, -10.070801
1578356, 0.476196, 0.470703, -0.635254, 8.117676, -0.610352, -3.356935
1578376, 0.580200, 0.491455, -0.653198, -3.234864, 24.658211, -9.033203
1578396, 0.572510, 0.497070, -0.609863, -3.601075, 20.263672, -10.620117
1578416, 0.571411, 0.534668, -0.638184, -7.324221, 21.972656, -8.911133
1578436, 0.614136, 0.644287, -0.566528, -3.295899, 24.963387, 1.831055
1578456, 0.733398, 0.564941, -0.607788, -3.723145, 11.840824, -1.403809
1578476, 0.619141, 0.573853, -0.569214, -5.187988, -7.507326, -4.333496
1578496, 0.545166, 0.578369, -0.594482, -3.051759, -4.028320, -3.234864
1578516, 0.527344, 0.565308, -0.615601, -1.159668, 4.333496, -0.061035
1578536, 0.488403, 0.586060, -0.624268, -2.258301, 19.531250, 5.187988
1578556, 0.637451, 0.717407, -0.679688, -13.366703, 17.700195, -2.807618
1578576, 0.713745, 0.699219, -0.601074, -17.944336, -6.652834, -11.840824
1578596, 0.637085, 0.595215, -0.567383, -17.150879, -27.587898, -19.714355
1578616, 0.617188, 0.535400, -0.572388, -16.784668, -22.766121, -17.578125
1578636, 0.654297, 0.516846, -0.618164, -15.808109, -34.057617, -19.409180
1578656, 0.557251, 0.496582, -0.538330, -12.573246, -39.184570, -14.221195
1578676, 0.553711, 0.512329, -0.578003, -6.164553, -31.677254, -9.399414
1578696, 0.549927, 0.551758, -0.615723, 0.671387, -25.756844, -5.065918
1578716, 0.548584, 0.583008, -0.630005, 1.098633, -29.235847, -3.417970
1578736, 0.568726, 0.597656, -0.627808, -0.244141, -37.170410, -4.455566
1578756, 0.537842, 0.612671, -0.583252, 1.708985, -45.776382, -4.943848
1578776, 0.507935, 0.618164, -0.597168, 5.798342, -51.879898, -4.821777
1578796, 0.349487, 0.590210, -0.721558, -2.502441, -30.029305, 1.770020
1578816, 0.442993, 0.643433, -0.657837, -22.521980, -1.831055, 14.831547
1578836, 0.536621, 0.625000, -0.583984, -19.897461, 3.784181, 11.657719
1578856, 0.528198, 0.604736, -0.625977, -17.456055, -4.089355, 8.850098
1578876, 0.534180, 0.569580, -0.611572, -11.840824, -19.348145, 7.568361
1578896, 0.468628, 0.587280, -0.650269, -7.751467, -22.155769, 8.056641
1578916, 0.458496, 0.601318, -0.654053, -7.263186, -16.296387, 9.460449
1578936, 0.456909, 0.602173, -0.663208, -4.577637, -13.305668, 7.812502
1578956, 0.435791, 0.596680, -0.643188, -2.990724, -4.699707, 7.751467
1578976, 0.470459, 0.602417, -0.653564, -1.892090, -0.061035, 8.422852
1578996, 0.475098, 0.608398, -0.650269, -0.976563, 2.807618, 6.774904
1579016, 0.505249, 0.587036, -0.661377, -1.037598, 3.112794, 6.103518
1579036, 0.507568, 0.559204, -0.627197, -2.380371, 5.859377, 10.559082
1579056, 0.517822, 0.567505, -0.622437, 2.014160, 7.507326, 11.291508
1579076, 0.524780, 0.518677, -0.605713, 10.620117, 12.390141, 13.488773
1579096, 0.472168, 0.553223, -0.663818, 15.563969, 18.127441, 16.418457
1579116, 0.448853, 0.591309, -0.709473, 14.038090, 25.085457, 13.183598
1579136, 0.435303, 0.626099, -0.666138, 8.789063, 32.165527, 11.169437
1579156, 0.528442, 0.661743, -0.625488, 1.281738, 35.034180, 7.385256
1579176, 0.559082, 0.646729, -0.608032, -0.793457, 28.991707, 6.164553
1579196, 0.621948, 0.607056, -0.591797, -3.723145, 15.686039, 5.371094
1579216, 0.565430, 0.600586, -0.529175, 2.319336, 7.507326, 3.845216
1579236, 0.557007, 0.571045, -0.628052, 3.479005, 9.338379, 3.356935
1579256, 0.591309, 0.708496, -0.714478, -10.559082, 10.681152, -5.371094
1579276, 0.607788, 0.682129, -0.628540, -20.446777, -4.516602, -12.268070
1579296, 0.577881, 0.615234, -0.633911, -25.756844, -15.014652, -13.793949
1579316, 0.573730, 0.591064, -0.630371, -32.775879, -20.080566, -13.061527
1579336, 0.564209, 0.599487, -0.646118, -37.841797, -26.489265, -11.047363
1579356, 0.582275, 0.710205, -0.469849, -41.320801, -6.042482, -19.226074
1579376, 0.629761, 0.575073, -0.621582, -33.752441, -10.437012, -24.475105
1579396, 0.550171, 0.612061, -0.519287, -34.240723, -17.089844, -25.878914
1579416, 0.510498, 0.640015, -0.526001, -25.817879, -19.592285, -23.620613
1579436, 0.502319, 0.641357, -0.577881, -26.916512, -12.512211, -24.292000
1579456, 0.478638, 0.625122, -0.562988, -26.733406, -10.375977, -21.728516
1579476, 0.416138, 0.648804, -0.540161, -21.423340, -6.103518, -15.197758
1579496, 0.460815, 0.652222, -0.541748, -21.789551, 11.230473, -13.183598
1579516, 0.459229, 0.631104, -0.543335, -12.451176, 8.605957, -6.042482
1579536, 0.497925, 0.649048, -0.523560, -6.408693, 6.042482, -1.525879
1579556, 0.511108, 0.688232, -0.563110, -3.295899, 1.525879, -0.915528
1579576, 0.493530, 0.704346, -0.539429, -5.859377, -1.831055, -1.464844
1579596, 0.460815, 0.721313, -0.486816, -4.272461, -4.333496, -0.122070
1579616, 0.479980, 0.717651, -0.508057, -1.159668, 0.366211, 0.427246
1579636, 0.506226, 0.713257, -0.515869, 0.610352, -3.723145, -0.366211
1579656, 0.477539, 0.714966, -0.524414, 1.098633, -4.455566, -0.854492
1579676, 0.502808, 0.716309, -0.528809, 1.831055, -3.662110, -0.427246
1579696, 0.514648, 0.760254, -0.481689, 4.699707, -9.216309, -0.366211
1579716, 0.590820, 0.820435, -0.449341, 15.930180, -18.249512, 0.915528
1579736, 0.500732, 1.182617, -0.272705, 57.739273, -10.437012, 31.188972
1579756, 0.562012, 1.202271, -0.139526, 139.099121, -17.211914, 98.205597
1579776, 0.670166, 0.497314, -0.495728, 157.470703, -21.362305, 102.294952
1579796, 0.482544, 0.240723, -0.772705, 111.694366, -28.442390, 77.026367
1579816, 0.443481, 0.308838, -0.716064, 79.040527, -18.371582, 55.725113
1579856, 0.428711, 0.442749, -0.919800, 85.998535, -16.357422, 42.846680
1579876, 0.403442, 0.364868, -0.914185, 73.730469, -13.732914, 35.156250
1579896, 0.361816, 0.313965, -0.885620, 57.617203, -6.958010, 23.925789
1579916, 0.436401, 0.336304, -0.860352, 51.269547, 7.080080, 15.075687
1579936, 0.520386, 0.291138, -0.841797, 47.363297, 7.324221, 9.216309
1579956, 0.487183, 0.280884, -0.828247, 40.405273, 13.244633, 4.516602
1579976, 0.501953, 0.319092, -0.777466, 37.536621, 22.827156, 0.061035
1579996, 0.538818, 0.302612, -0.747192, 42.175293, 25.390633, -3.173829
1580016, 0.567139, 0.162354, -0.784912, 32.897949, 25.207527, -15.991215
