timestamp,ax,ay,az,gx,gy,gz
367250, 1.043701, 0.789185, -0.203369, -8.972168, 71.044922, 51.818863
367270, 1.670532, 0.673096, -0.134277, 4.516602, -26.184090, -2.929688
367290, 0.752197, 0.500488, -0.293457, -25.939949, -55.053726, 5.249023
367310, 0.848633, 0.690796, -0.118408, -36.315918, -57.983414, 28.991707
367330, 0.691406, 0.778931, -0.448608, -30.578621, -89.172394, 23.620613
367350, 0.264526, 0.875244, -0.720947, -22.766121, -103.332550, -1.342773
367370, -0.115967, 0.806641, -0.827026, -9.582520, -78.247070, -19.531250
367390, -0.246094, 0.699341, -0.751343, -14.099125, 19.714355, 10.131836
367410, 0.348877, 0.723511, -0.508789, -21.179199, 54.016129, 34.912109
367430, 0.526245, 0.756836, -0.313354, -12.329105, 74.707031, 32.531738
367510, 0.535278, 0.720703, -0.459351, 3.906251, -2.502441, 1.098633
367550, 0.533691, 0.753052, -0.370850, 11.535648, -3.784181, 5.187988
367570, 0.496582, 0.774048, -0.401978, 25.695808, -8.850098, 10.131836
367590, 0.452515, 0.836914, -0.562012, 24.353035, 0.549316, 12.634281
367610, 0.433594, 0.955078, -0.537598, 34.912109, 2.746582, 20.202637
367630, 0.465942, 0.818115, -0.693115, 47.302261, 15.380863, 7.934572
367650, 0.361084, 0.645386, -0.817383, 39.245605, 19.042969, -8.361816
367710, 0.304321, 0.583008, -0.513184, 29.296883, 60.852066, -31.005867
367730, 0.392456, 0.616943, -0.433228, 37.231445, 84.594727, -19.348145
367750, 0.640869, 0.598633, -0.430298, 40.527344, 91.857941, -14.099125
367770, 0.879150, 0.651611, -0.363159, 29.174812, 73.425293, -10.253906
367790, 0.968994, 0.677368, -0.283325, 29.907234, 46.569839, -7.751467
367810, 1.005493, 0.624512, -0.316162, 25.756844, 11.962894, -8.972168
367830, 0.821899, 0.572998, -0.290527, 18.005371, -12.939457, -11.962894
367850, 0.693481, 0.528320, -0.253418, 16.906738, -13.732914, -4.699707
367890, 0.699097, 0.622437, -0.359741, 8.422852, -16.113281, -13.793949
367910, 0.672974, 0.750366, -0.434448, 17.150879, -20.935059, -16.235352
367930, 0.622925, 0.783691, -0.614868, 18.554688, -29.174812, -13.671879
367950, 0.428345, 0.677246, -0.615967, 11.840824, -24.902351, -10.131836
367970, 0.383057, 0.614868, -0.561279, 8.728027, -12.512211, -6.164553
367990, 0.452637, 0.599609, -0.530273, 8.117676, -1.892090, -4.394531
368010, 0.559326, 0.660034, -0.555664, 5.554201, -3.723145, -2.136230
368030, 0.571655, 0.686646, -0.531494, 6.591799, -2.014160, -1.220703
368050, 0.568848, 0.666504, -0.530762, 8.850098, -1.647950, 1.403809
368070, 0.570801, 0.648438, -0.533569, 8.850098, -2.258301, 2.075195
368090, 0.566284, 0.647827, -0.532227, 9.033203, -2.990724, 3.173829
368170, 0.542847, 0.621460, -0.557617, 3.662110, 4.943848, 3.173829
368190, 0.573486, 0.635864, -0.545776, 3.417970, 5.981447, 2.197266
368210, 0.582397, 0.627686, -0.535889, 5.065918, 3.601075, 2.319336
368230, 0.509155, 0.591919, -0.546265, 4.760742, 11.840824, 5.676271
368250, 0.550293, 0.611572, -0.556885, 2.807618, 16.113281, 11.047363
368270, 0.591797, 0.619751, -0.553101, 2.258301, 16.723633, 8.483887
368290, 0.611816, 0.610718, -0.546875, 1.525879, 14.221195, 6.469728
368310, 0.617310, 0.613647, -0.536743, 1.281738, 8.789063, 4.821777
368330, 0.595459, 0.617310, -0.539917, 1.892090, 5.981447, 3.356935
368350, 0.603271, 0.605713, -0.528687, 0.732422, 7.446291, 3.784181
368410, 0.579224, 0.604614, -0.561035, 0.732422, 0.366211, -0.061035
368430, 0.591309, 0.607422, -0.546753, -1.831055, 1.953125, 0.549316
368450, 0.612061, 0.631714, -0.514526, -0.671387, 1.708985, 0.976563
368470, 0.600952, 0.639648, -0.517578, 1.647950, 2.319336, 2.075195
368490, 0.596436, 0.639404, -0.525269, 2.319336, 2.685547, 4.211426
368510, 0.603149, 0.623901, -0.522827, 2.563477, 3.356935, 4.089355
368590, 0.612061, 0.611206, -0.526489, 6.103518, 0.915528, 8.117676
368610, 0.590698, 0.686768, -0.546387, 9.277344, -1.403809, 16.723633
368650, 0.630249, 0.563232, -0.535034, 12.268070, 5.371094, 23.986824
368670, 0.650146, 0.501343, -0.529541, 7.751467, 2.807618, 22.705086
368690, 0.656372, 0.545654, -0.556396, 1.159668, -3.356935, 25.695808
368710, 0.650269, 0.574463, -0.537598, -3.967286, -3.479005, 33.630371
368730, 0.673340, 0.553345, -0.498535, -2.136230, -0.610352, 32.348633
368750, 0.679199, 0.509644, -0.476196, 3.967286, 2.075195, 24.902351
368770, 0.662109, 0.499512, -0.524414, 6.591799, 2.502441, 18.920898
368810, 0.673706, 0.478760, -0.556885, 0.122070, 2.868653, 10.864258
368850, 0.625977, 0.465210, -0.560303, -1.525879, -1.831055, -6.774904
368870, 0.623291, 0.467285, -0.577271, -5.554201, 2.136230, -12.023930
368890, 0.645142, 0.529175, -0.561523, -8.056641, 4.028320, -14.831547
368910, 0.646240, 0.577759, -0.519165, -2.868653, 6.958010, -11.108402
368930, 0.634399, 0.553955, -0.513184, -1.098633, 13.549809, -4.333496
368950, 0.680542, 0.558350, -0.514404, -1.770020, 14.343266, -0.610352
368970, 0.718018, 0.565552, -0.503052, -1.098633, 10.070801, -2.136230
369010, 0.658203, 0.551392, -0.514282, 0.854492, -1.159668, -5.249023
369030, 0.666626, 0.559326, -0.526489, 0.305176, -0.122070, -1.708985
369090, 0.668823, 0.543091, -0.515991, 0.244141, -1.220703, -1.892090
369110, 0.666870, 0.543335, -0.516357, -0.122070, -0.854492, -1.342773
369130, 0.669800, 0.553345, -0.514771, -0.427246, -2.014160, -0.488281
369150, 0.669922, 0.559326, -0.515625, 0.061035, -1.281738, 0.061035
369170, 0.665405, 0.544678, -0.517700, -0.488281, -0.183106, 0.000000
369190, 0.670898, 0.540161, -0.512207, -1.586915, 0.061035, -0.610352
369210, 0.671387, 0.552124, -0.505493, -0.732422, -1.342773, -1.037598
369230, 0.666504, 0.560303, -0.518555, 0.671387, -1.525879, -0.488281
369270, 0.667725, 0.547241, -0.522949, -0.427246, -1.708985, -2.258301
369290, 0.664307, 0.534668, -0.516846, -1.647950, -0.488281, -2.990724
369310, 0.660522, 0.553833, -0.517334, -2.075195, 0.305176, -1.708985
369330, 0.665039, 0.561523, -0.508423, -1.159668, 0.671387, -1.098633
369350, 0.675049, 0.566772, -0.515259, 0.000000, -0.732422, -1.281738
369370, 0.663574, 0.556519, -0.515869, -0.305176, -1.708985, -1.037598
369390, 0.663452, 0.556885, -0.508911, -0.244141, -0.549316, -1.159668
369490, 0.671265, 0.561401, -0.513306, -0.244141, 0.732422, -0.671387
369510, 0.663696, 0.560059, -0.507935, 1.037598, 0.122070, -0.976563
369530, 0.657837, 0.558105, -0.516235, 1.770020, 0.183106, -0.793457
369550, 0.666138, 0.551392, -0.518188, 1.220703, -0.122070, -0.976563
369570, 0.664185, 0.552490, -0.512817, 0.854492, -0.549316, -0.976563
369590, 0.659424, 0.554321, -0.518799, 0.427246, 0.610352, -1.342773
369610, 0.667236, 0.557861, -0.514526, 0.061035, 0.061035, -1.159668
369630, 0.660889, 0.560303, -0.511597, 0.305176, 0.122070, -1.647950
369650, 0.660400, 0.560181, -0.514404, -0.061035, -0.183106, -1.342773
369670, 0.664185, 0.560059, -0.509155, 0.000000, 1.342773, -0.854492
369730, 0.661255, 0.560181, -0.511597, 0.793457, -0.244141, -1.281738
369750, 0.664551, 0.561279, -0.518921, 0.549316, -0.671387, -1.647950
369770, 0.657227, 0.560425, -0.511963, 0.122070, -0.366211, -1.647950
369790, 0.666626, 0.554077, -0.506836, 0.244141, -1.098633, -1.403809
369810, 0.662476, 0.576172, -0.520630, 0.061035, 0.183106, -1.159668
369830, 0.663696, 0.557251, -0.500366, 0.061035, -0.488281, 0.122070
369850, 0.660400, 0.562134, -0.509399, 1.098633, -0.305176, -0.793457
369950, 0.656128, 0.561646, -0.517456, 0.183106, -0.854492, -1.464844
369970, 0.661865, 0.566406, -0.509888, 0.122070, -0.366211, -1.586915
369990, 0.662476, 0.570068, -0.509766, 0.610352, -0.244141, -1.037598
370010, 0.661499, 0.562744, -0.508911, 0.549316, 0.000000, -0.610352
370030, 0.660767, 0.561768, -0.508911, 0.549316, 0.244141, -0.305176
370050, 0.663330, 0.564575, -0.511353, 0.732422, 0.122070, -0.061035
370070, 0.664795, 0.562378, -0.512207, 0.915528, 0.671387, 0.183106
370170, 0.671265, 0.550781, -0.493042, 0.610352, 0.366211, 0.976563
370191, 0.661255, 0.570557, -0.515625, 0.488281, -0.549316, -0.305176
370211, 0.672974, 0.558960, -0.500977, 0.427246, -0.122070, 0.305176
370231, 0.657227, 0.566528, -0.510498, 0.915528, -0.427246, 0.732422
370251, 0.667847, 0.561646, -0.504883, 1.464844, -0.549316, 1.037598
370271, 0.664551, 0.560669, -0.516113, 1.037598, -0.305176, 0.793457
370291, 0.665283, 0.557373, -0.508301, 0.427246, 0.000000, 2.136230
370311, 0.673096, 0.559326, -0.506958, 0.610352, 0.000000, 1.464844
370331, 0.667847, 0.556396, -0.502441, 1.098633, -0.915528, 1.586915
370351, 0.667847, 0.556641, -0.510620, 1.220703, -1.037598, 0.915528
370371, 0.664795, 0.559326, -0.517700, 0.610352, -1.342773, 0.732422
370391, 0.668213, 0.559570, -0.505737, 0.915528, -1.647950, 0.610352
370411, 0.663208, 0.552856, -0.509033, 1.037598, -0.427246, 0.610352
370431, 0.669189, 0.550049, -0.513428, 0.488281, -1.159668, -0.549316
370451, 0.667358, 0.557861, -0.515991, 0.000000, -1.953125, -1.342773
370491, 0.662720, 0.556396, -0.511719, 0.610352, -1.220703, -0.427246
370531, 0.668335, 0.560425, -0.504883, 0.061035, -0.915528, 0.183106
370551, 0.670044, 0.559204, -0.509399, 0.305176, -1.037598, -0.183106
370571, 0.664795, 0.559326, -0.515137, 0.244141, -0.854492, -0.610352
370591, 0.658203, 0.559448, -0.511475, 0.000000, -1.281738, -0.732422
370611, 0.662598, 0.558350, -0.509033, 0.244141, -1.281738, 0.061035
370631, 0.660889, 0.561279, -0.514771, 0.488281, -1.037598, -0.427246
370651, 0.661255, 0.556641, -0.513428, 0.183106, -1.220703, -0.488281
370671, 0.662231, 0.556152, -0.511597, 0.061035, -1.159668, -1.220703
370691, 0.665039, 0.560913, -0.513306, -0.061035, -0.854492, -1.220703
370711, 0.666260, 0.558960, -0.508789, -0.488281, -0.427246, -0.244141
370731, 0.669189, 0.560669, -0.502563, -0.061035, -0.366211, 0.061035
370771, 0.666504, 0.564941, -0.512695, 0.366211, -1.037598, 0.305176
370791, 0.660522, 0.568359, -0.515015, 0.671387, -0.732422, -0.122070
370811, 0.663574, 0.557617, -0.511475, 0.427246, -0.610352, -0.122070
370831, 0.660278, 0.559937, -0.509033, 0.488281, -0.671387, 0.122070
370851, 0.669678, 0.555908, -0.508545, 0.671387, -0.549316, -0.366211
370871, 0.662109, 0.558960, -0.511963, 0.366211, -0.610352, -0.610352
370891, 0.668823, 0.564453, -0.511597, 0.183106, -0.671387, -0.183106
370911, 0.662354, 0.562622, -0.509521, 0.610352, -0.854492, 0.061035
370931, 0.662720, 0.554565, -0.511230, 0.854492, -0.732422, 0.183106
370951, 0.660767, 0.555908, -0.511841, 0.671387, -0.793457, 0.000000
370971, 0.662354, 0.563110, -0.512329, 0.549316, -0.671387, -0.122070
370991, 0.665894, 0.544434, -0.505981, 0.488281, -0.793457, 0.488281
371011, 0.667480, 0.589722, -0.529785, 0.061035, 0.366211, -1.403809
371031, 0.653809, 0.552002, -0.493164, 0.976563, 0.061035, 2.319336
371051, 0.672852, 0.548584, -0.514404, 1.037598, -0.671387, -1.281738
371071, 0.656494, 0.563843, -0.519409, -0.122070, 0.305176, -0.061035
371151, 0.661133, 0.562866, -0.513672, 0.854492, -0.854492, -0.061035
371171, 0.661987, 0.561523, -0.512939, 0.793457, -0.427246, 0.366211
371191, 0.659424, 0.553955, -0.509399, 0.488281, 0.122070, 0.976563
371211, 0.678223, 0.558105, -0.516846, 0.244141, 0.671387, -1.220703
371231, 0.654053, 0.572144, -0.514160, 0.793457, -0.427246, 1.647950
371251, 0.677002, 0.545532, -0.502930, 1.159668, 0.061035, 0.366211
371271, 0.653809, 0.559204, -0.517822, 0.610352, -0.244141, -0.244141
371291, 0.668213, 0.555054, -0.508545, 0.305176, -0.061035, 0.000000
371311, 0.662231, 0.564209, -0.511841, 0.366211, -0.183106, 0.061035
371331, 0.658936, 0.553833, -0.498047, 0.671387, -0.122070, 1.220703
371351, 0.675537, 0.575806, -0.527954, 0.183106, 0.610352, -1.098633
371371, 0.665039, 0.554443, -0.502441, 0.366211, -0.549316, 1.220703
371391, 0.669678, 0.555664, -0.513550, 0.793457, -0.976563, -0.610352
371411, 0.657959, 0.550903, -0.513550, 0.610352, -0.854492, -0.366211
371431, 0.666016, 0.555054, -0.519531, -0.183106, -0.671387, -1.770020
371451, 0.663696, 0.559692, -0.509277, -0.244141, -0.854492, -1.464844
371471, 0.667358, 0.558350, -0.506592, 0.305176, -0.488281, -1.525879
371491, 0.668579, 0.561523, -0.510132, 0.183106, -0.488281, -0.732422
371511, 0.667725, 0.554932, -0.501221, 0.183106, -0.244141, -0.793457
371551, 0.664551, 0.568237, -0.509888, 0.122070, -0.488281, 0.366211
371571, 0.661743, 0.564087, -0.508789, 0.671387, -0.732422, 0.732422
371591, 0.666748, 0.556152, -0.511108, 0.244141, -0.976563, 0.366211
371611, 0.664063, 0.561646, -0.505615, 0.122070, -1.403809, -0.183106
371631, 0.663574, 0.559814, -0.509644, 0.793457, -0.854492, -0.244141
371651, 0.666138, 0.555786, -0.514771, 0.305176, -0.671387, -0.061035
371671, 0.668823, 0.556030, -0.507935, 0.000000, -0.427246, 0.061035
371691, 0.667236, 0.560059, -0.503784, 0.549316, -0.915528, 0.305176
371711, 0.665405, 0.557129, -0.513550, 0.793457, -0.366211, 0.366211
371731, 0.663574, 0.560425, -0.512207, -0.122070, -0.061035, 0.183106
371751, 0.665039, 0.562134, -0.508789, 0.061035, -0.244141, 0.122070
371771, 0.664185, 0.562012, -0.510742, 0.427246, -0.671387, 0.427246
371791, 0.666870, 0.554688, -0.507202, 0.488281, -0.549316, 0.610352
371811, 0.670410, 0.549561, -0.503418, 0.244141, -0.366211, 0.244141
371831, 0.668823, 0.558960, -0.506104, 0.244141, 0.061035, -0.183106
371851, 0.667480, 0.560303, -0.512695, 0.244141, -0.671387, -0.366211
371891, 0.663574, 0.557373, -0.510742, -0.305176, -0.732422, -0.671387
371911, 0.664063, 0.566895, -0.508179, 0.488281, -0.671387, -0.305176
371931, 0.669434, 0.561890, -0.507446, 0.732422, -0.549316, 0.427246
371951, 0.667358, 0.557251, -0.503906, 0.427246, -0.427246, 0.244141
371971, 0.666382, 0.553711, -0.509399, 0.244141, -0.488281, 0.000000
371991, 0.665039, 0.558838, -0.515137, -0.244141, -0.549316, -0.549316
372011, 0.665161, 0.565063, -0.507813, 0.244141, -0.488281, -0.061035
372031, 0.666626, 0.556274, -0.505249, 0.732422, -0.610352, -0.244141
372051, 0.665649, 0.555542, -0.507568, 0.183106, -0.366211, -0.488281
372071, 0.667236, 0.568481, -0.506470, -0.061035, -0.244141, 0.183106
372091, 0.671509, 0.563232, -0.503418, 0.671387, -0.427246, 0.915528
372111, 0.664429, 0.550171, -0.513062, 0.244141, -0.549316, 0.000000
372131, 0.662476, 0.566284, -0.514771, -0.183106, -0.244141, -0.427246
372151, 0.667847, 0.566772, -0.508179, 0.671387, -0.183106, 0.061035
372171, 0.668579, 0.552856, -0.506958, 0.671387, -0.244141, -0.061035
372191, 0.669189, 0.553833, -0.502075, 0.305176, -0.610352, -0.549316
372211, 0.669556, 0.564331, -0.503662, 0.488281, -0.305176, 0.183106
372291, 0.666016, 0.558350, -0.507935, -0.183106, -0.305176, -1.037598
372311, 0.669678, 0.564209, -0.503296, 0.244141, -0.061035, -0.732422
372331, 0.667236, 0.564087, -0.503418, 0.732422, -0.122070, -0.061035
372351, 0.669434, 0.559814, -0.506714, 0.427246, -0.610352, -0.061035
372371, 0.664795, 0.560913, -0.505005, 0.549316, -0.671387, -0.061035
372391, 0.666382, 0.561768, -0.510620, 0.854492, -0.610352, 0.000000
372411, 0.667236, 0.562988, -0.510742, 0.549316, -0.305176, 0.488281
372431, 0.671631, 0.554810, -0.501465, 0.549316, -0.366211, 0.488281
372451, 0.668823, 0.549561, -0.504639, 0.366211, -0.549316, -0.366211
372471, 0.664551, 0.559937, -0.512695, 0.000000, -0.549316, -0.610352
372491, 0.665039, 0.559570, -0.505127, 0.305176, -0.793457, -0.549316
372511, 0.671143, 0.555298, -0.502441, 0.488281, -0.976563, -0.915528
372531, 0.668579, 0.558105, -0.505005, 0.549316, -1.220703, -1.037598
372551, 0.665039, 0.556763, -0.511230, 0.305176, -0.854492, -1.403809
372571, 0.663086, 0.555298, -0.512817, -0.122070, -0.488281, -1.647950
372591, 0.668335, 0.560913, -0.508301, -0.305176, -0.732422, -1.647950
372611, 0.666992, 0.566162, -0.500610, 0.183106, -0.732422, -1.159668
372631, 0.667114, 0.563843, -0.500854, 0.549316, -0.488281, -0.732422
372651, 0.664551, 0.566040, -0.506714, 0.549316, -0.183106, -0.305176
372691, 0.666504, 0.562012, -0.506348, 0.915528, -0.915528, 0.366211
372731, 0.668823, 0.562866, -0.503540, 0.305176, -0.793457, 0.244141
372751, 0.665283, 0.564697, -0.502075, 0.549316, -0.732422, 0.061035
372771, 0.667969, 0.561279, -0.505371, 0.732422, -0.854492, 0.122070
372791, 0.665405, 0.558105, -0.510132, 0.732422, -0.732422, 0.061035
372811, 0.666260, 0.559448, -0.513184, 0.610352, -0.976563, -0.244141
372831, 0.662231, 0.560791, -0.513062, 0.793457, -0.976563, -0.061035
372851, 0.667236, 0.550537, -0.508301, 0.305176, -0.549316, -0.244141
372871, 0.666138, 0.564941, -0.503662, -0.061035, -0.732422, -0.427246
372891, 0.665649, 0.570679, -0.503906, 0.793457, -0.549316, 0.244141
372911, 0.668579, 0.560913, -0.506470, 0.671387, -0.793457, 0.000000
372931, 0.663696, 0.567261, -0.507813, 0.183106, -0.732422, 0.122070
372951, 0.669312, 0.561157, -0.498535, 0.549316, -0.915528, 0.366211
372971, 0.685181, 0.566528, -0.510498, 1.098633, -2.197266, -0.366211
372991, 0.654541, 0.561279, -0.506226, 1.403809, -2.929688, -0.488281
373011, 0.650513, 0.554077, -0.512695, 1.220703, -0.488281, 0.671387
373071, 0.646606, 0.554077, -0.514160, 0.549316, -0.793457, -1.220703
373091, 0.660767, 0.561768, -0.513916, 0.427246, 0.793457, -0.671387
373111, 0.667236, 0.562378, -0.510254, 0.793457, 0.610352, -0.671387
373131, 0.666870, 0.551147, -0.503784, 0.793457, 0.671387, -1.098633
373151, 0.671753, 0.565918, -0.508301, 0.549316, -0.427246, -0.732422
373171, 0.664917, 0.564697, -0.505859, 0.976563, -0.854492, -0.610352
373191, 0.664063, 0.558228, -0.516602, 0.610352, -0.976563, -0.854492
373211, 0.659546, 0.558472, -0.512451, -0.183106, -0.854492, -0.732422
373231, 0.661987, 0.567505, -0.509033, 0.305176, -0.732422, -0.610352
373251, 0.665161, 0.561523, -0.514038, 0.305176, -0.793457, -0.183106
373271, 0.663696, 0.566406, -0.509155, 0.183106, -1.281738, 0.061035
373291, 0.665405, 0.562622, -0.505371, 0.732422, -1.159668, 0.000000
373311, 0.662476, 0.559570, -0.511353, 0.671387, -0.976563, 0.366211
373331, 0.665894, 0.555664, -0.511719, 0.000000, -0.976563, 0.000000
373351, 0.663818, 0.562866, -0.511963, 0.061035, -1.098633, -0.427246
373371, 0.663818, 0.565430, -0.510010, 0.183106, -0.915528, 0.183106
373411, 0.660767, 0.564453, -0.505859, 0.671387, -0.244141, 0.549316
373431, 0.667114, 0.562744, -0.511963, 0.671387, -0.671387, 0.610352
373451, 0.670288, 0.557739, -0.510620, 0.671387, -1.281738, -0.122070
373471, 0.658813, 0.559937, -0.511963, 0.549316, -1.220703, -0.427246
373491, 0.658936, 0.558350, -0.512451, 0.244141, -0.488281, 0.610352
373511, 0.670410, 0.558350, -0.505859, 0.183106, -0.610352, 0.915528
373531, 0.667480, 0.553345, -0.505005, 0.549316, -0.549316, 0.305176
373551, 0.664673, 0.563110, -0.516113, 0.366211, -0.854492, 0.366211
373571, 0.661133, 0.565674, -0.510742, 0.610352, -0.183106, 0.732422
373591, 0.664063, 0.557129, -0.506226, 0.915528, -0.122070, 0.305176
373611, 0.664673, 0.558472, -0.512939, 0.488281, -0.183106, 0.061035
373631, 0.663940, 0.566650, -0.511108, 0.793457, -0.244141, 0.671387
373651, 0.664307, 0.556885, -0.508789, 1.037598, -0.122070, 0.915528
373671, 0.665283, 0.551025, -0.506592, 0.671387, -0.183106, 0.122070
373691, 0.663818, 0.559570, -0.508667, 0.671387, 0.000000, -0.244141
373711, 0.671021, 0.561768, -0.510742, 0.793457, -0.488281, 0.183106
373731, 0.666504, 0.559937, -0.511108, 0.610352, -0.549316, 0.305176
373771, 0.665771, 0.561035, -0.510620, 0.427246, -0.610352, -0.244141
373791, 0.668335, 0.564941, -0.508911, 0.488281, -0.671387, 0.305176
373811, 0.668091, 0.555176, -0.507446, 1.220703, -0.549316, 0.732422
373831, 0.670532, 0.557983, -0.514526, 0.671387, -0.793457, 0.488281
373851, 0.667236, 0.557617, -0.509521, 0.671387, -1.159668, -0.122070
373871, 0.656860, 0.553467, -0.510986, 0.793457, -0.732422, -0.122070
373891, 0.667358, 0.553223, -0.513672, 0.305176, -0.427246, 0.183106
373911, 0.670532, 0.551636, -0.507202, 0.183106, -0.549316, -0.305176
373931, 0.668091, 0.554443, -0.509521, 0.183106, -0.671387, -0.244141
373951, 0.667725, 0.559814, -0.512695, -0.061035, -0.671387, -0.061035
373971, 0.664429, 0.563965, -0.508179, 0.427246, -0.488281, 0.305176
374011, 0.665405, 0.558228, -0.514282, 0.183106, -0.732422, -0.549316
374031, 0.665039, 0.560181, -0.511963, 0.122070, -0.732422, -0.122070
374051, 0.666870, 0.556885, -0.510498, 0.122070, -0.732422, -0.061035
374071, 0.669678, 0.557739, -0.505127, 0.061035, -1.220703, 0.122070
374091, 0.665283, 0.560547, -0.508057, 0.244141, -0.915528, 0.061035
374171, 0.667114, 0.560913, -0.513794, 0.549316, -0.793457, 0.000000
374191, 0.666016, 0.558838, -0.507080, 0.549316, -0.244141, 0.610352
374211, 0.666748, 0.552124, -0.509521, 0.671387, -0.305176, -0.122070
374231, 0.667725, 0.555420, -0.514893, -0.061035, -0.488281, -0.549316
374251, 0.667358, 0.559692, -0.506592, -0.061035, -0.305176, 0.122070
374271, 0.670288, 0.557373, -0.506104, 0.488281, -0.549316, 0.488281
374291, 0.668213, 0.551514, -0.507202, 0.427246, -0.732422, 0.000000
374311, 0.665405, 0.561646, -0.511475, 0.122070, -0.671387, -0.366211
374331, 0.664795, 0.565918, -0.508789, 0.549316, -0.549316, 0.061035
374351, 0.664551, 0.556641, -0.509155, 0.732422, -0.793457, 0.549316
374371, 0.669678, 0.550415, -0.508789, 0.183106, -0.671387, -0.183106
374391, 0.670410, 0.561035, -0.511963, 0.183106, -0.854492, -0.122070
374411, 0.665894, 0.560547, -0.510376, 0.427246, -0.671387, 0.244141
374431, 0.665527, 0.552368, -0.506836, 0.671387, -0.488281, 0.488281
374451, 0.668091, 0.549194, -0.507935, 0.244141, -0.549316, 0.122070
374471, 0.670410, 0.557007, -0.509155, 0.061035, -0.854492, -0.244141
374491, 0.667358, 0.564209, -0.511597, 0.610352, -0.793457, 0.000000
374511, 0.665894, 0.557617, -0.513794, 0.671387, -0.732422, 0.427246
374531, 0.668457, 0.548828, -0.507568, 0.122070, -0.732422, 0.183106
374551, 0.669556, 0.552124, -0.507080, 0.183106, -0.610352, -0.427246
374571, 0.668457, 0.560425, -0.512695, 0.183106, -0.915528, -0.427246
374591, 0.664429, 0.558960, -0.509888, 0.183106, -0.671387, -0.061035
374611, 0.666016, 0.557861, -0.508545, 0.122070, -0.427246, 0.183106
374631, 0.667603, 0.557495, -0.507568, 0.366211, -0.427246, -0.061035
374651, 0.670654, 0.557739, -0.508667, 0.488281, -0.610352, -0.244141
374671, 0.669312, 0.556274, -0.509644, 0.488281, -0.976563, -0.671387
374691, 0.665283, 0.554810, -0.512817, 0.366211, -0.793457, -0.549316
374711, 0.665894, 0.557007, -0.512207, -0.122070, -0.610352, -0.305176
374731, 0.668457, 0.559937, -0.506592, 0.000000, -0.305176, 0.000000
374751, 0.670288, 0.559204, -0.506226, 0.366211, -0.244141, 0.000000
374771, 0.667603, 0.561157, -0.507446, 0.488281, -0.976563, -0.122070
374791, 0.659058, 0.554321, -0.506836, 0.732422, -0.976563, 0.427246
374811, 0.665039, 0.553345, -0.512573, 0.244141, -0.732422, -0.122070
374831, 0.671265, 0.564209, -0.513306, 0.061035, -1.159668, -0.122070
374851, 0.673828, 0.557007, -0.502686, 0.427246, -1.098633, 0.183106
374871, 0.669312, 0.552124, -0.507202, 0.427246, -0.976563, -0.183106
374891, 0.665405, 0.554443, -0.510864, 0.244141, -0.976563, -0.061035
374911, 0.664551, 0.555908, -0.515137, 0.244141, -0.732422, -0.305176
374931, 0.667480, 0.559082, -0.515381, -0.061035, -0.488281, -0.183106
374951, 0.667236, 0.555054, -0.502808, -0.061035, -0.671387, -0.427246
374971, 0.669678, 0.558350, -0.503662, 0.061035, -0.549316, -0.488281
374991, 0.666870, 0.563477, -0.507080, 0.427246, -0.549316, 0.000000
375011, 0.665649, 0.562256, -0.511841, 0.488281, -0.671387, 0.488281
375031, 0.664673, 0.555054, -0.509155, 0.366211, -0.732422, 0.122070
375051, 0.663330, 0.540161, -0.502441, 0.183106, -1.586915, -0.122070
375071, 0.678467, 0.566406, -0.525513, -0.488281, -0.671387, -2.014160
375091, 0.657837, 0.582520, -0.513062, 0.000000, 0.000000, 1.098633
375111, 0.674805, 0.530884, -0.486206, 0.915528, -0.915528, 1.037598
375131, 0.667725, 0.558716, -0.519287, -0.366211, -1.098633, -0.488281
375151, 0.671631, 0.564575, -0.504639, 0.366211, -0.976563, 0.305176
375171, 0.661499, 0.558960, -0.513306, 0.915528, -0.732422, 0.061035
375191, 0.666626, 0.545166, -0.510498, 0.183106, -0.610352, -0.305176
375211, 0.669189, 0.564575, -0.512451, -0.488281, -0.732422, -1.037598
375231, 0.670776, 0.562988, -0.501709, 0.183106, -0.793457, -0.183106
375251, 0.667358, 0.560791, -0.511353, 0.488281, -0.732422, -0.061035
375271, 0.665894, 0.552002, -0.506226, 0.244141, -0.305176, 0.244141
375291, 0.666138, 0.558350, -0.507324, 0.427246, -0.488281, -0.061035
375311, 0.666626, 0.563721, -0.510498, 0.793457, -0.488281, 0.061035
375331, 0.669434, 0.558472, -0.507935, 0.427246, -0.732422, -0.122070
375351, 0.665649, 0.559448, -0.504761, 0.610352, -0.854492, -0.488281
375371, 0.662354, 0.562378, -0.511475, 0.671387, -0.488281, -0.061035
375391, 0.663086, 0.559814, -0.510254, 0.793457, -0.122070, 0.427246
375411, 0.668091, 0.551636, -0.508789, 0.793457, -0.305176, 0.061035
375431, 0.665894, 0.551636, -0.508667, 0.488281, 0.000000, -0.854492
375451, 0.672241, 0.560425, -0.509399, 0.549316, -0.366211, -0.732422
375471, 0.667725, 0.565063, -0.509521, 0.366211, -0.488281, -0.488281
375491, 0.665894, 0.560059, -0.502075, 0.732422, -0.366211, 0.183106
375511, 0.666504, 0.557983, -0.511719, 0.488281, -0.305176, -0.305176
375531, 0.668335, 0.559570, -0.509888, 0.610352, -0.305176, 0.000000
375551, 0.668945, 0.561157, -0.511963, 0.793457, -0.183106, 0.122070
375571, 0.668213, 0.553955, -0.504272, 0.671387, -0.122070, 0.244141
375591, 0.669678, 0.555176, -0.504150, 0.610352, -0.305176, -0.183106
375611, 0.668701, 0.561279, -0.509766, 0.610352, -0.488281, -0.305176
375631, 0.667236, 0.563354, -0.511597, 0.732422, -0.671387, 0.305176
375651, 0.666992, 0.551636, -0.508301, 0.610352, -0.549316, 0.183106
375671, 0.665649, 0.551636, -0.505371, 0.244141, -0.671387, -0.122070
375691, 0.670410, 0.560059, -0.510254, 0.244141, -0.671387, -0.488281
375711, 0.673218, 0.552979, -0.508789, 0.122070, -1.037598, -0.671387
375731, 0.665161, 0.557861, -0.510986, 0.183106, -0.976563, -1.098633
375751, 0.663696, 0.555664, -0.509521, 0.305176, -0.671387, -0.976563
375771, 0.665527, 0.560913, -0.509644, 0.000000, -0.671387, -0.976563
375791, 0.670654, 0.562744, -0.505615, -0.122070, -0.610352, -0.671387
375811, 0.667236, 0.559448, -0.502808, 0.183106, -1.037598, -0.671387
375831, 0.660156, 0.560059, -0.510132, 0.122070, -0.793457, -0.976563
375851, 0.663574, 0.558350, -0.511108, -0.061035, -1.281738, -0.915528
375871, 0.664795, 0.561157, -0.511841, -0.122070, -1.281738, -1.892090
375891, 0.664307, 0.558716, -0.505249, -0.122070, -1.098633, -1.281738
375911, 0.665894, 0.562988, -0.505859, 0.000000, -0.793457, -0.915528
375931, 0.670288, 0.560181, -0.501709, 0.305176, -0.793457, -0.915528
375951, 0.669067, 0.553223, -0.508545, 0.305176, -1.953125, -2.319336
375971, 0.659546, 0.562134, -0.511353, -0.427246, -0.671387, -2.014160
375991, 0.664185, 0.569092, -0.507568, 0.061035, -0.854492, -1.586915
376011, 0.661987, 0.563965, -0.508423, 0.305176, -0.915528, -0.488281
376031, 0.667847, 0.562744, -0.511108, 0.122070, -1.098633, -0.854492
376051, 0.660278, 0.557983, -0.508789, -0.183106, -1.037598, -1.281738
376071, 0.664917, 0.563232, -0.512207, -0.549316, -1.159668, -1.770020
376091, 0.657471, 0.573364, -0.507080, 0.244141, -0.732422, -0.610352
376111, 0.662354, 0.567993, -0.506470, 0.549316, -0.793457, -0.061035
376131, 0.660767, 0.558594, -0.505859, 0.122070, -0.793457, -0.549316
376151, 0.661377, 0.567993, -0.508789, -0.183106, -0.793457, -1.037598
376171, 0.660767, 0.581665, -0.510132, 0.366211, -1.037598, -0.122070
376191, 0.659302, 0.569824, -0.509521, 0.793457, -1.037598, 0.854492
376211, 0.661133, 0.555664, -0.506470, 0.549316, -0.732422, 0.366211
376231, 0.661499, 0.559326, -0.514038, -0.183106, -0.793457, -0.915528
376251, 0.661255, 0.566650, -0.509766, -0.061035, -0.915528, -0.732422
376271, 0.661377, 0.566895, -0.507935, 0.488281, -0.427246, 0.427246
376291, 0.663330, 0.561401, -0.503906, 0.427246, -0.122070, 0.610352
376311, 0.664551, 0.562622, -0.507324, 0.305176, -0.488281, -0.488281
376331, 0.655884, 0.567749, -0.512817, 0.122070, -0.549316, -0.793457
376351, 0.658936, 0.572632, -0.510010, 0.061035, -0.671387, -0.305176
376371, 0.663574, 0.564697, -0.503174, 0.061035, -0.549316, -0.610352
376391, 0.665405, 0.556885, -0.498413, -0.122070, -0.305176, -1.464844
376411, 0.663452, 0.558105, -0.505127, -0.061035, -0.427246, -2.136230
376431, 0.661865, 0.551636, -0.516357, -0.732422, -0.488281, -3.173829
376451, 0.655273, 0.557007, -0.514160, -1.892090, 0.183106, -4.272461
376471, 0.665039, 0.554443, -0.506348, -3.967286, -0.183106, -5.981447
376491, 0.668823, 0.568481, -0.491699, -4.638672, 0.061035, -6.774904
376511, 0.675659, 0.596680, -0.477661, -1.892090, 1.892090, -6.835939
376531, 0.701416, 0.584961, -0.466187, 0.671387, 0.427246, -7.202150
376551, 0.681274, 0.589722, -0.496094, 2.075195, -6.530764, -10.070801
376571, 0.644287, 0.594849, -0.513916, 2.990724, -6.225588, -10.375977
376591, 0.616089, 0.606323, -0.527832, 2.990724, -8.911133, -8.056641
376611, 0.610474, 0.592773, -0.524658, 2.746582, -4.760742, -4.882813
376631, 0.634033, 0.576782, -0.508545, 1.953125, -2.807618, -4.394531
376651, 0.655518, 0.589844, -0.503784, 3.234864, -3.234864, -6.103518
376671, 0.640137, 0.594849, -0.520020, 3.845216, -5.126953, -5.554201
376691, 0.624756, 0.589966, -0.523560, 3.173829, -5.493164, -4.882813
376711, 0.613281, 0.586914, -0.523193, 2.563477, -3.723145, -3.112794
376731, 0.621582, 0.581787, -0.523682, 2.197266, -1.586915, -2.563477
376751, 0.632202, 0.582520, -0.524536, 1.464844, -2.258301, -3.173829
376771, 0.627319, 0.590576, -0.528076, 0.732422, -2.685547, -3.051759
376791, 0.628052, 0.593140, -0.520020, 0.427246, -1.831055, -2.502441
376811, 0.630615, 0.591919, -0.515015, 0.244141, -1.525879, -1.525879
376831, 0.637085, 0.591553, -0.519653, 0.244141, -2.197266, -1.098633
376851, 0.627319, 0.579712, -0.527100, -0.244141, -3.967286, -1.831055
376871, 0.614014, 0.589966, -0.529297, -1.098633, -3.662110, -1.525879
376891, 0.619629, 0.593750, -0.525146, -1.098633, -2.990724, -1.159668
376911, 0.622803, 0.591919, -0.519287, -1.037598, -0.854492, -0.915528
376931, 0.639160, 0.590820, -0.513062, -0.122070, -0.488281, -1.464844
376951, 0.636230, 0.596069, -0.523071, -0.061035, -0.915528, -2.075195
376971, 0.633911, 0.601440, -0.523682, 0.366211, -0.854492, -1.403809
376991, 0.635376, 0.593750, -0.519409, 0.976563, -3.356935, -2.502441
377011, 0.613037, 0.598999, -0.523682, 1.342773, -2.624512, -2.624512
377031, 0.631226, 0.590942, -0.531372, 0.366211, -1.647950, -2.563477
377051, 0.620728, 0.586914, -0.541138, -2.136230, -3.417970, -2.258301
377071, 0.602173, 0.588379, -0.526733, -2.441406, -2.014160, -1.708985
377091, 0.634521, 0.586304, -0.528076, -2.990724, -0.488281, -2.258301
377111, 0.649292, 0.588379, -0.537598, -5.126953, -4.394531, -3.112794
377131, 0.627563, 0.607178, -0.518799, -5.859377, -5.371094, -1.159668
377151, 0.630859, 0.599243, -0.501221, -4.821777, -6.530764, -1.953125
377171, 0.617920, 0.613770, -0.509277, -3.845216, -6.896975, -2.746582
377191, 0.621094, 0.618164, -0.537109, -3.784181, -7.690432, -2.563477
377211, 0.618042, 0.591797, -0.557251, -9.155273, -9.460449, -0.244141
377231, 0.657715, 0.621948, -0.494019, -7.385256, -14.282230, 1.525879
377251, 0.593384, 0.563232, -0.522217, -8.361816, -20.874023, -1.586915
377271, 0.567383, 0.591187, -0.519287, -15.502934, -15.625004, 2.136230
377291, 0.602661, 0.636230, -0.484375, -15.625004, -12.634281, 3.906251
377311, 0.620361, 0.628418, -0.507446, -13.549809, -11.047363, 3.662110
377331, 0.623047, 0.662231, -0.520020, -14.404301, -11.779789, 4.943848
377351, 0.599487, 0.652588, -0.483398, -8.728027, -15.563969, 4.821777
377371, 0.578491, 0.600342, -0.539307, -6.958010, -15.014652, 3.601075
377391, 0.570557, 0.603760, -0.573242, -7.812502, -13.671879, 3.906251
377411, 0.526978, 0.609009, -0.578125, -8.666992, -8.789063, 1.770020
377431, 0.544312, 0.630737, -0.555054, -9.338379, -2.868653, 1.525879
377451, 0.609741, 0.630493, -0.519653, -7.690432, -7.385256, -0.610352
377471, 0.606812, 0.604370, -0.523193, -12.695316, -6.530764, -0.610352
377491, 0.634399, 0.652954, -0.475464, -11.901859, -6.591799, 6.225588
377511, 0.595825, 0.670410, -0.471436, -4.577637, -5.065918, 4.394531
377531, 0.604126, 0.658691, -0.515381, -1.831055, -8.117676, 3.784181
377551, 0.574463, 0.668945, -0.521362, -0.610352, -11.596684, -0.427246
377571, 0.502563, 0.666260, -0.506226, 3.295899, -9.582520, -1.037598
377591, 0.497192, 0.633789, -0.530518, 2.136230, -0.671387, 0.366211
377611, 0.581055, 0.687622, -0.498657, -0.915528, 4.028320, 4.577637
377631, 0.592529, 0.665771, -0.484375, 4.760742, 1.953125, 4.699707
377651, 0.600220, 0.644897, -0.519287, 6.591799, -0.122070, 5.371094
377671, 0.583496, 0.633545, -0.516113, 7.934572, 1.831055, 4.516602
377691, 0.606934, 0.644897, -0.525879, 10.437012, 0.793457, 5.187988
377711, 0.617676, 0.632080, -0.534302, 12.207035, -4.089355, 2.197266
377751, 0.562500, 0.607544, -0.548584, 13.061527, -0.610352, 1.037598
377771, 0.567017, 0.622437, -0.552368, 13.671879, 2.990724, 3.295899
377791, 0.586548, 0.571167, -0.554321, 15.380863, 5.798342, 0.793457
377811, 0.613525, 0.557007, -0.583252, 10.192871, 4.638672, -1.586915
377831, 0.622559, 0.588135, -0.569702, 3.784181, 1.525879, -1.831055
377851, 0.607788, 0.609741, -0.524658, 3.234864, 1.159668, 1.464844
377871, 0.613159, 0.587524, -0.517944, 5.615236, 2.075195, 2.563477
377891, 0.620117, 0.576660, -0.551880, 3.417970, 0.183106, 1.403809
377911, 0.597412, 0.586670, -0.557861, 1.037598, -2.136230, -0.549316
377931, 0.587280, 0.580688, -0.560425, 0.000000, -2.136230, -1.831055
377951, 0.590698, 0.599976, -0.572510, -3.173829, -0.305176, 0.061035
377971, 0.611572, 0.616943, -0.537354, -2.746582, -1.037598, 1.953125
377991, 0.600952, 0.590698, -0.533813, 0.610352, -0.122070, 0.854492
378011, 0.610840, 0.599976, -0.551880, -0.183106, -1.098633, 0.366211
378031, 0.605469, 0.604614, -0.545166, 0.000000, -1.586915, 0.610352
378051, 0.623779, 0.594116, -0.543457, 0.793457, -4.211426, -0.366211
378071, 0.602051, 0.591797, -0.552246, 0.488281, -5.615236, -2.197266
378091, 0.584717, 0.609375, -0.554810, 0.305176, -6.469728, -2.319336
378111, 0.561646, 0.613403, -0.558105, 1.220703, -4.333496, -0.854492
378131, 0.580322, 0.601074, -0.562622, 0.610352, -0.915528, 1.770020
378151, 0.591675, 0.588867, -0.556152, -0.610352, -0.915528, -1.098633
378171, 0.599121, 0.597656, -0.554321, -0.671387, -0.488281, -1.281738
378191, 0.595825, 0.603882, -0.554443, -0.732422, -0.549316, -1.464844
378211, 0.587769, 0.607544, -0.549683, -0.183106, -0.305176, -0.183106
378231, 0.599609, 0.601196, -0.544189, 0.427246, -0.671387, 0.183106
378251, 0.588501, 0.589722, -0.543091, 0.732422, 0.549316, -1.037598
378271, 0.578491, 0.602295, -0.557617, -0.061035, 2.563477, 0.549316
378291, 0.599487, 0.611450, -0.552246, -0.183106, 3.417970, 1.220703
378311, 0.613037, 0.611694, -0.547485, 0.793457, 0.915528, -0.976563
378391, 0.571045, 0.590576, -0.548584, 0.366211, 2.929688, 2.868653
378411, 0.600464, 0.598633, -0.552979, 0.549316, 5.554201, 2.441406
378431, 0.611572, 0.604004, -0.560181, 0.671387, 2.075195, 0.610352
378451, 0.600464, 0.613037, -0.552979, 0.793457, -0.732422, -0.427246
378471, 0.593384, 0.609009, -0.544434, 1.464844, -1.403809, 0.061035
378511, 0.602783, 0.596680, -0.548340, 0.061035, -1.037598, 0.854492
378531, 0.600586, 0.604980, -0.550293, 0.366211, -1.953125, 0.793457
378551, 0.601807, 0.602905, -0.552612, 1.159668, -2.563477, -0.488281
378571, 0.574707, 0.600586, -0.547363, 1.159668, -0.671387, -0.244141
378591, 0.600098, 0.606812, -0.551636, 1.342773, -0.183106, 1.770020
378611, 0.600220, 0.598145, -0.547729, 1.525879, 0.122070, 0.610352
378631, 0.591675, 0.591431, -0.553589, 1.708985, -0.732422, -0.061035
378651, 0.592529, 0.598511, -0.563965, 0.915528, -0.610352, -1.281738
378671, 0.604614, 0.608398, -0.555298, 0.793457, -3.662110, -1.708985
378691, 0.582886, 0.605835, -0.544189, 1.586915, -2.441406, -0.244141
378711, 0.592651, 0.596191, -0.543091, 1.647950, -0.305176, 1.220703
378731, 0.600098, 0.594238, -0.550659, 1.464844, -0.061035, 0.732422
378751, 0.588379, 0.596802, -0.564941, 1.037598, 1.770020, 1.220703
378771, 0.611328, 0.596680, -0.561768, 0.671387, -2.319336, -1.159668
378791, 0.595581, 0.594482, -0.548462, 0.854492, -3.417970, -0.915528
378811, 0.598755, 0.589478, -0.544800, 0.671387, -1.037598, -0.183106
378831, 0.590820, 0.602051, -0.545898, 0.854492, 0.305176, 0.671387
378851, 0.579712, 0.598877, -0.555054, 1.525879, 3.967286, 2.136230
378871, 0.592285, 0.599609, -0.563354, 1.342773, 2.868653, 0.976563
378891, 0.581299, 0.601685, -0.555176, 1.281738, 4.638672, 0.549316
378911, 0.592407, 0.597534, -0.555664, 1.037598, 4.394531, 1.586915
378931, 0.605591, 0.594482, -0.550537, 0.732422, 3.723145, 1.159668
378951, 0.618896, 0.597168, -0.553589, 0.061035, 0.549316, 0.671387
378971, 0.609375, 0.604614, -0.542603, 0.671387, -1.098633, 0.061035
378991, 0.599243, 0.597168, -0.545532, 1.586915, -1.464844, 0.549316
379011, 0.597778, 0.589111, -0.552490, 1.220703, -0.915528, 0.549316
379031, 0.599365, 0.586670, -0.554932, 0.305176, -0.732422, 0.427246
379051, 0.608643, 0.603027, -0.553101, 0.366211, -0.854492, -0.061035
379071, 0.589355, 0.593506, -0.544800, 1.525879, 0.915528, -0.244141
379091, 0.595703, 0.581787, -0.553833, 1.037598, 2.014160, 1.098633
379111, 0.613281, 0.591919, -0.556152, -0.061035, 0.793457, -0.122070
379131, 0.590820, 0.594238, -0.549194, 0.915528, 1.953125, -0.305176
379151, 0.633057, 0.594238, -0.560913, 0.000000, -2.746582, -0.183106
379171, 0.615845, 0.599365, -0.543457, -0.427246, -6.469728, -2.990724
379191, 0.580444, 0.596802, -0.545166, 0.854492, -6.225588, -1.770020
379211, 0.578003, 0.586304, -0.554443, 0.366211, -1.953125, -0.427246
379231, 0.594849, 0.593872, -0.557861, -0.244141, 0.061035, 0.305176
379251, 0.601685, 0.597290, -0.553711, -0.305176, -0.122070, -0.915528
379271, 0.588989, 0.598145, -0.550293, -0.122070, 0.000000, -0.061035
379291, 0.595581, 0.595093, -0.547852, -0.244141, 1.281738, 0.793457
379311, 0.606934, 0.595337, -0.553711, -0.122070, 0.549316, 0.671387
379331, 0.609863, 0.600952, -0.554321, -0.488281, -0.427246, 0.000000
379351, 0.607666, 0.595093, -0.543701, -0.061035, -1.647950, -0.671387
379371, 0.590942, 0.588257, -0.547852, -0.061035, -0.549316, -0.976563
379391, 0.580933, 0.597290, -0.550415, -0.305176, 2.929688, 0.549316
379411, 0.606445, 0.596558, -0.547852, 0.000000, 3.784181, 1.464844
379431, 0.607178, 0.594116, -0.549194, -0.122070, 2.746582, 0.244141
379451, 0.598267, 0.595703, -0.547119, -0.305176, 2.929688, 0.305176
379471, 0.612915, 0.603027, -0.545288, -0.305176, 1.647950, 0.122070
379491, 0.608643, 0.599365, -0.538086, -0.183106, 1.098633, 0.061035
379511, 0.612671, 0.598022, -0.542358, 0.610352, -0.915528, -0.366211
379531, 0.602051, 0.595825, -0.546265, 0.671387, -1.098633, -0.671387
379551, 0.599976, 0.597900, -0.546143, 0.732422, -0.732422, -0.610352
379571, 0.602539, 0.596558, -0.543335, 0.793457, -0.305176, -0.366211
379591, 0.603638, 0.596802, -0.542969, 0.854492, 0.183106, -0.244141
379611, 0.606934, 0.600586, -0.547119, 0.671387, 0.305176, 0.427246
379631, 0.608398, 0.596558, -0.545410, 0.610352, -0.610352, -0.549316
379651, 0.601196, 0.594360, -0.542236, 0.793457, -0.488281, -0.732422
379671, 0.605713, 0.597046, -0.545898, 0.793457, -0.305176, -0.427246
379691, 0.602417, 0.596191, -0.544922, 0.854492, -0.305176, -0.061035
379711, 0.606934, 0.594482, -0.545166, 0.671387, 0.305176, 0.183106
379731, 0.613647, 0.594482, -0.543335, 0.549316, -0.427246, -0.427246
379751, 0.605103, 0.597534, -0.540039, 0.793457, -0.488281, -0.610352
379771, 0.603638, 0.597046, -0.545044, 1.098633, -0.488281, -0.793457
379791, 0.600708, 0.599243, -0.547119, 1.098633, -0.488281, -0.366211
379811, 0.605713, 0.596069, -0.543579, 0.976563, -0.244141, 0.061035
379831, 0.607788, 0.593872, -0.542236, 0.793457, -0.427246, -0.183106
379851, 0.605957, 0.598022, -0.542725, 0.854492, -0.427246, -0.061035
379871, 0.605591, 0.596313, -0.545898, 1.098633, -0.549316, -0.122070
379891, 0.604248, 0.591919, -0.545654, 0.854492, -0.732422, -0.549316
379911, 0.600708, 0.597168, -0.546387, 0.732422, 0.061035, -0.305176
379931, 0.610229, 0.600342, -0.542603, 1.098633, -0.244141, 0.427246
379951, 0.606323, 0.592773, -0.540649, 1.342773, -0.488281, 0.000000
379971, 0.603394, 0.590942, -0.547974, 1.037598, -0.427246, 0.122070
379991, 0.605225, 0.592285, -0.549805, 0.549316, -0.427246, 0.000000
380011, 0.604004, 0.596191, -0.547363, 0.488281, -0.244141, -0.305176
380031, 0.604614, 0.597412, -0.545410, 0.549316, -0.366211, 0.000000
380051, 0.610107, 0.598389, -0.543457, 0.549316, -0.854492, 0.366211
380071, 0.600952, 0.592285, -0.543457, 1.037598, -0.671387, 0.061035
380091, 0.604370, 0.595703, -0.551147, 0.610352, -0.427246, 0.183106
380111, 0.602783, 0.594604, -0.546143, 0.488281, -0.244141, 0.000000
380131, 0.608765, 0.597656, -0.542114, 0.793457, -0.488281, 0.610352
380151, 0.610718, 0.602539, -0.542358, 1.159668, -0.915528, 0.732422
380171, 0.603882, 0.597534, -0.541260, 1.647950, -0.610352, 1.464844
380191, 0.607544, 0.587402, -0.545410, 1.586915, -0.427246, 1.220703
380211, 0.606689, 0.587280, -0.549316, 1.159668, -0.610352, 0.915528
380231, 0.607666, 0.596069, -0.549438, 0.976563, -0.854492, 1.098633
380251, 0.606323, 0.590942, -0.546509, 0.976563, -0.793457, 0.671387
380271, 0.608887, 0.591309, -0.543945, 0.732422, -0.488281, 0.488281
380291, 0.608398, 0.592651, -0.544678, 0.915528, -0.732422, 0.549316
380311, 0.608521, 0.588745, -0.547729, 0.976563, -0.915528, 0.610352
380331, 0.606201, 0.585693, -0.547852, 0.732422, -0.793457, -0.244141
380351, 0.607056, 0.590942, -0.550903, 0.549316, -0.488281, -0.305176
380371, 0.610107, 0.595581, -0.546021, 0.671387, -0.488281, 0.183106
380391, 0.609985, 0.586182, -0.542480, 0.854492, -0.793457, 0.244141
380411, 0.606812, 0.585571, -0.550903, 0.427246, -0.488281, -0.427246
380431, 0.606201, 0.591919, -0.549927, 0.305176, -0.366211, -0.366211
380451, 0.610107, 0.591919, -0.545654, 0.610352, -0.427246, -0.122070
380471, 0.607910, 0.590942, -0.544189, 0.549316, -0.366211, -0.061035
380491, 0.607788, 0.594482, -0.547241, 0.610352, -0.549316, 0.061035
380511, 0.606323, 0.590210, -0.546875, 0.732422, -0.732422, -0.366211
380531, 0.607422, 0.583984, -0.547607, 0.610352, -0.488281, -0.488281
380551, 0.610596, 0.589478, -0.548950, 0.305176, -0.549316, -0.549316
380571, 0.609863, 0.591797, -0.545898, 0.244141, -0.488281, -0.427246
380591, 0.608643, 0.591797, -0.544312, 0.427246, -0.610352, 0.183106
380611, 0.610718, 0.586792, -0.546875, 0.488281, -0.610352, 0.000000
380631, 0.607422, 0.588013, -0.549927, 0.183106, -0.732422, -0.366211
380651, 0.606812, 0.595825, -0.548584, 0.061035, -0.549316, -0.366211
380671, 0.605347, 0.595459, -0.545044, 0.366211, -0.305176, -0.061035
380691, 0.611816, 0.592407, -0.543823, 0.610352, -0.915528, 0.061035
380711, 0.608765, 0.588135, -0.546631, 0.549316, -0.854492, -0.305176
380731, 0.607056, 0.587769, -0.549683, 0.183106, -0.549316, -0.244141
380751, 0.608276, 0.592651, -0.546265, 0.183106, -0.549316, 0.000000
380771, 0.607300, 0.587402, -0.546387, 0.488281, -0.671387, -0.061035
380791, 0.610718, 0.589844, -0.549316, -0.122070, -0.732422, -0.366211
380811, 0.608765, 0.595215, -0.544312, -0.244141, -0.610352, 0.061035
380831, 0.605957, 0.589600, -0.547485, 0.427246, -0.976563, -0.183106
380851, 0.605225, 0.590088, -0.551880, 0.000000, -0.671387, -0.366211
380871, 0.608154, 0.596191, -0.545044, 0.061035, -0.488281, 0.183106
380891, 0.609253, 0.597168, -0.540771, 0.671387, -0.732422, 0.366211
380911, 0.610352, 0.589966, -0.543579, 0.854492, -0.915528, 0.305176
380931, 0.607056, 0.587769, -0.547852, 0.610352, -0.854492, -0.305176
380951, 0.606934, 0.588257, -0.550781, 0.488281, -0.732422, -0.305176
380971, 0.604858, 0.593018, -0.551392, 0.183106, -0.671387, -0.122070
380991, 0.604492, 0.595703, -0.546265, 0.305176, -0.366211, 0.305176
381011, 0.609131, 0.587402, -0.545532, 0.244141, -0.183106, -0.122070
381031, 0.607666, 0.593384, -0.547241, 0.000000, -0.366211, 0.122070
381051, 0.611694, 0.593140, -0.546753, 0.366211, -0.122070, 0.000000
381071, 0.605469, 0.586792, -0.547852, 0.427246, -0.732422, -0.427246
381091, 0.605347, 0.587524, -0.548096, -0.183106, -0.122070, -0.732422
381111, 0.616211, 0.586792, -0.542603, -0.305176, 0.610352, 0.000000
381131, 0.622314, 0.592529, -0.539429, -0.366211, -0.671387, -0.488281
381151, 0.603516, 0.589111, -0.546509, 0.000000, -0.427246, -0.244141
381171, 0.598877, 0.599731, -0.552734, -0.671387, 1.037598, 0.122070
381191, 0.612671, 0.606934, -0.545898, 0.244141, 0.610352, 0.915528
381211, 0.629883, 0.575317, -0.543335, -0.915528, -0.305176, -0.671387
381231, 0.627563, 0.572021, -0.536377, -1.892090, -0.976563, -1.831055
381251, 0.638916, 0.569946, -0.547363, -4.577637, 0.671387, -1.647950
381271, 0.621216, 0.614380, -0.531128, -5.432129, -1.892090, -0.915528
381291, 0.654419, 0.616089, -0.537231, -2.136230, -11.413578, -2.197266
381311, 0.593994, 0.587891, -0.569580, -2.624512, -14.587406, -4.394531
381331, 0.552368, 0.597778, -0.565186, -3.479005, -10.437012, -3.051759
381351, 0.568726, 0.575684, -0.571167, -5.004883, -7.141115, -0.427246
381371, 0.613037, 0.592896, -0.575317, -11.352543, -7.141115, -2.014160
381391, 0.595703, 0.621216, -0.472900, -7.324221, -6.591799, -1.098633
381411, 0.596069, 0.605469, -0.524170, -4.089355, -5.004883, 0.183106
381431, 0.599854, 0.594482, -0.555298, -5.859377, -5.310059, -1.342773
381451, 0.599976, 0.604492, -0.550415, -9.582520, -5.187988, -0.549316
381471, 0.622925, 0.643311, -0.531860, -7.690432, -8.728027, -2.258301
381491, 0.588989, 0.593872, -0.551025, -5.126953, -11.962894, -5.676271
381511, 0.553223, 0.596436, -0.567749, -10.620117, -12.634281, -4.882813
381531, 0.575562, 0.627930, -0.529907, -10.864258, -7.568361, -0.976563
381551, 0.586914, 0.633301, -0.519287, -7.690432, -4.516602, 0.305176
381571, 0.563843, 0.600098, -0.553345, -6.286623, -3.356935, -1.770020
381591, 0.574829, 0.647827, -0.523560, -9.033203, 0.366211, 0.427246
381611, 0.583984, 0.677124, -0.505981, -4.211426, -1.708985, 1.586915
381631, 0.616089, 0.639526, -0.532593, -2.319336, -6.408693, 0.244141
381651, 0.585205, 0.627808, -0.540771, -5.676271, -8.422852, -0.976563
381671, 0.544800, 0.635742, -0.524658, -5.615236, -6.469728, 1.037598
381691, 0.562134, 0.631592, -0.531494, -3.601075, -2.502441, 3.601075
381711, 0.587891, 0.635986, -0.546875, -2.990724, -2.929688, 1.220703
381731, 0.559082, 0.620972, -0.543457, -2.075195, -5.676271, -1.037598
381751, 0.557617, 0.628540, -0.525757, -2.624512, -3.356935, -1.525879
381771, 0.557983, 0.656494, -0.533936, 1.953125, -1.892090, 0.732422
381791, 0.551758, 0.636108, -0.552856, 1.770020, 2.075195, 3.845216
381811, 0.583008, 0.635254, -0.538940, 0.366211, 2.136230, 3.662110
381831, 0.594727, 0.635498, -0.515869, 0.732422, -1.464844, 2.563477
381851, 0.606445, 0.601318, -0.497559, 1.953125, -3.173829, 3.112794
381871, 0.620850, 0.628296, -0.515503, 3.540040, -3.662110, 2.136230
381891, 0.572998, 0.659180, -0.541260, 6.042482, -1.525879, 3.112794
381911, 0.593994, 0.639893, -0.556274, 7.019045, -2.807618, 2.380371
381931, 0.537231, 0.622070, -0.558960, 4.455566, -4.821777, -2.868653
381951, 0.510254, 0.610596, -0.559570, 1.281738, 2.807618, 1.159668
381971, 0.606201, 0.636719, -0.554810, -0.549316, -0.549316, -1.953125
381991, 0.573486, 0.627930, -0.548462, 0.854492, -1.403809, -3.356935
382011, 0.569702, 0.625610, -0.545410, 0.793457, -0.061035, -1.403809
382031, 0.584229, 0.627563, -0.539307, 0.488281, -0.183106, -0.244141
382051, 0.606567, 0.634766, -0.533813, 1.708985, -2.380371, -0.793457
382071, 0.573730, 0.625977, -0.548218, 1.525879, -3.295899, -2.014160
382091, 0.542358, 0.625977, -0.542969, 2.563477, -0.915528, -2.319336
382111, 0.540283, 0.612549, -0.564331, -1.464844, 0.549316, 2.746582
382131, 0.590210, 0.627563, -0.529297, -2.075195, 6.958010, 4.516602
382151, 0.580200, 0.597534, -0.549438, 0.183106, 2.807618, 2.319336
382171, 0.580933, 0.600464, -0.568848, -2.990724, 3.906251, 2.014160
382191, 0.626587, 0.633545, -0.533203, -4.150391, 0.305176, -0.610352
382211, 0.587158, 0.653809, -0.516113, -1.342773, -2.197266, -1.281738
382231, 0.575317, 0.639771, -0.523682, 2.258301, -0.366211, 0.732422
382251, 0.569214, 0.604248, -0.557007, 2.868653, -0.488281, -2.929688
382271, 0.570923, 0.614746, -0.549927, -1.037598, 0.549316, -2.136230
382291, 0.576416, 0.645264, -0.512939, -0.122070, 1.892090, -0.793457
382331, 0.623535, 0.624634, -0.546875, 1.708985, -1.342773, -1.647950
382351, 0.587036, 0.637207, -0.525269, 4.150391, -2.929688, -3.295899
382371, 0.579834, 0.626587, -0.538086, 5.187988, -1.831055, -3.112794
382391, 0.554932, 0.637085, -0.552246, 6.042482, -0.427246, -4.211426
382411, 0.521484, 0.608398, -0.567871, 4.638672, 2.258301, -3.112794
382431, 0.581177, 0.630127, -0.546021, 4.028320, 0.793457, -1.831055
382451, 0.603271, 0.607300, -0.544067, 3.234864, -1.403809, -2.380371
382471, 0.594360, 0.620239, -0.532227, 0.549316, -0.915528, -1.525879
382491, 0.573608, 0.634155, -0.524658, 0.854492, -0.854492, 1.464844
382511, 0.581787, 0.632446, -0.535278, 0.793457, -0.549316, 3.356935
382531, 0.565552, 0.651489, -0.540283, 3.845216, -1.831055, 4.638672
382551, 0.585815, 0.606934, -0.553711, 3.906251, -2.197266, 4.699707
382571, 0.581787, 0.607788, -0.547729, 1.403809, -1.586915, 2.075195
382591, 0.579468, 0.626587, -0.530518, 2.319336, -0.976563, 0.976563
382611, 0.555298, 0.639648, -0.541504, 4.333496, 0.244141, 3.967286
382631, 0.574097, 0.626831, -0.538330, 4.882813, 5.554201, 5.676271
382651, 0.596680, 0.627441, -0.534668, 7.019045, 3.479005, 3.845216
382671, 0.548828, 0.626099, -0.546021, 9.155273, 7.751467, 5.126953
382691, 0.530396, 0.583008, -0.552246, 9.094238, 14.465336, 9.216309
382711, 0.566162, 0.576050, -0.554688, 7.324221, 22.949226, 11.413578
382731, 0.678101, 0.623779, -0.539551, 7.019045, 23.132332, 13.061527
382751, 0.711670, 0.606201, -0.541138, 8.422852, 6.896975, 6.164553
382771, 0.658569, 0.575317, -0.545044, 5.676271, -4.089355, 1.464844
382791, 0.632324, 0.580688, -0.518066, 3.967286, -6.652834, 0.366211
382811, 0.633545, 0.595825, -0.523682, 5.920412, -7.934572, -0.183106
382831, 0.611938, 0.590698, -0.551758, 6.591799, -9.033203, 0.122070
382851, 0.593262, 0.591797, -0.561401, 6.713869, -9.399414, 2.563477
382871, 0.572876, 0.556519, -0.577515, 5.676271, -5.187988, 1.708985
382891, 0.598022, 0.562378, -0.569580, 1.831055, 0.061035, 1.220703
382911, 0.641357, 0.612915, -0.523804, 2.990724, -6.042482, -1.647950
382931, 0.590454, 0.613647, -0.541626, 5.676271, -7.202150, 1.342773
382951, 0.564575, 0.576050, -0.573853, 5.676271, -1.708985, 5.187988
382971, 0.589966, 0.561035, -0.582520, 3.479005, 1.037598, 4.882813
382991, 0.577759, 0.589233, -0.567993, 5.371094, 2.136230, 1.159668
383011, 0.574585, 0.601807, -0.593018, 5.249023, 4.760742, 7.629396
383031, 0.612549, 0.604248, -0.561646, 6.408693, 4.455566, 11.535648
383051, 0.595825, 0.572510, -0.586792, 7.873537, 0.305176, 15.380863
383071, 0.590088, 0.552490, -0.619751, 3.112794, 1.159668, 19.104004
383091, 0.581909, 0.554199, -0.600708, -2.136230, 3.723145, 22.399910
383111, 0.562256, 0.540405, -0.559082, -7.995607, 23.620613, 34.912109
383131, 0.643433, 0.540161, -0.540405, -9.826660, 30.883797, 37.414551
383151, 0.701294, 0.556519, -0.505615, -7.812502, 31.311043, 36.193848
383191, 0.782227, 0.513306, -0.470581, -1.220703, 10.070801, 23.071297
383211, 0.748657, 0.534424, -0.487061, -0.610352, 2.014160, 23.071297
383231, 0.737183, 0.495850, -0.503784, -0.366211, -1.831055, 20.690918
383251, 0.702148, 0.470215, -0.507324, -0.793457, 0.854492, 17.272949
383271, 0.742798, 0.441895, -0.474121, 2.258301, 1.525879, 9.277344
383291, 0.705200, 0.412842, -0.528320, 2.929688, -1.647950, -6.774904
383311, 0.717285, 0.431152, -0.543701, -1.647950, -1.831055, -12.451176
383331, 0.707642, 0.480835, -0.518066, -2.990724, -0.183106, -17.456055
383351, 0.693359, 0.510376, -0.509521, -0.244141, 0.793457, -16.906738
383371, 0.697754, 0.513916, -0.520752, 0.671387, 2.197266, -16.662598
383391, 0.697510, 0.498657, -0.510132, -0.488281, 2.563477, -17.944336
383411, 0.693359, 0.519775, -0.499268, -0.793457, 1.892090, -20.690918
383431, 0.687378, 0.564453, -0.502930, 1.220703, 0.915528, -19.653320
383451, 0.675293, 0.588135, -0.524536, 2.624512, 0.183106, -14.343266
383471, 0.664917, 0.571045, -0.532104, 2.258301, -0.122070, -7.873537
383491, 0.660156, 0.531616, -0.528076, 0.732422, 0.305176, -5.249023
383511, 0.667725, 0.527100, -0.533203, -0.976563, 0.549316, -6.896975
383531, 0.685181, 0.547729, -0.520020, -1.037598, -0.854492, -9.582520
383551, 0.676758, 0.555054, -0.508667, 0.671387, -2.197266, -10.314941
383571, 0.660889, 0.552856, -0.515381, 0.427246, -0.732422, -7.934572
383591, 0.664795, 0.546387, -0.508301, -0.305176, 2.319336, -4.943848
383611, 0.685425, 0.546509, -0.505493, -0.488281, 1.647950, -5.004883
383631, 0.680176, 0.550415, -0.504028, 0.061035, 0.854492, -7.019045
383651, 0.659058, 0.548706, -0.512939, 0.122070, 1.281738, -7.263186
383671, 0.666504, 0.572388, -0.517578, -1.159668, 2.014160, -4.272461
383691, 0.666260, 0.576050, -0.511475, -0.305176, 1.098633, -3.112794
383711, 0.656982, 0.564453, -0.510132, -0.305176, 1.525879, -1.098633
383731, 0.666260, 0.565063, -0.506836, -0.305176, 2.441406, -0.427246
383751, 0.673462, 0.565674, -0.504150, 0.061035, 1.708985, -0.671387
383771, 0.659790, 0.559814, -0.501343, 0.366211, 3.295899, -0.122070
383791, 0.680664, 0.558716, -0.507080, 0.427246, 2.746582, 0.061035
383811, 0.698364, 0.568237, -0.507568, 0.549316, -2.197266, -3.173829
383831, 0.659790, 0.560547, -0.500122, 1.342773, -2.685547, -2.075195
383851, 0.659180, 0.555054, -0.505615, 1.098633, -0.305176, -0.366211
383871, 0.673584, 0.565674, -0.507935, 0.061035, -1.586915, -1.159668
383891, 0.690552, 0.569702, -0.508301, 0.793457, -4.638672, -1.892090
383911, 0.660400, 0.558960, -0.507446, 1.220703, -6.042482, -2.319336
383931, 0.637939, 0.555298, -0.510742, 0.854492, -2.380371, -1.037598
383951, 0.667358, 0.555176, -0.508423, 0.427246, -1.586915, -0.488281
383971, 0.666626, 0.562622, -0.508911, 0.366211, -1.220703, -1.403809
383991, 0.678101, 0.565430, -0.511108, 0.549316, -3.112794, -1.220703
384011, 0.671631, 0.567749, -0.508057, 0.793457, -4.516602, -1.892090
384031, 0.675171, 0.562866, -0.510986, 1.098633, -7.507326, -2.624512
384051, 0.655151, 0.564209, -0.513428, 0.732422, -8.300781, -3.662110
384071, 0.673828, 0.567017, -0.517822, 0.976563, -9.826660, -3.967286
384091, 0.693481, 0.572266, -0.519165, 1.159668, -16.235352, -6.530764
384111, 0.573730, 0.551514, -0.526978, 1.159668, -13.244633, -2.746582
384131, 0.634766, 0.563843, -0.539795, -0.793457, -8.361816, 0.122070
384151, 0.619629, 0.569336, -0.520020, 0.000000, -1.953125, 0.122070
384171, 0.646606, 0.560425, -0.532471, 0.732422, -1.037598, 0.122070
384191, 0.647583, 0.560425, -0.530029, -0.610352, 0.610352, -1.647950
384211, 0.651123, 0.572144, -0.517822, -0.244141, 0.244141, -0.549316
384231, 0.661377, 0.575439, -0.523926, 0.671387, -0.854492, -0.427246
384251, 0.636963, 0.565063, -0.528320, 0.061035, -3.784181, -0.915528
384271, 0.638794, 0.569946, -0.527588, 0.122070, -3.417970, 0.061035
384291, 0.648560, 0.570801, -0.527466, 0.488281, -3.662110, 0.061035
384311, 0.625977, 0.560669, -0.522461, 0.671387, -0.549316, -1.098633
384331, 0.614380, 0.557251, -0.528687, 0.366211, 6.042482, 1.159668
384351, 0.657959, 0.571655, -0.532227, -0.244141, 7.507326, 1.159668
384371, 0.651123, 0.576416, -0.516968, 0.732422, 7.934572, 0.183106
384391, 0.673096, 0.568604, -0.525024, 1.464844, 2.868653, 1.220703
384411, 0.709961, 0.584351, -0.534790, 0.732422, -7.263186, -3.234864
384431, 0.624390, 0.564697, -0.512329, 2.014160, -16.418457, -6.103518
384451, 0.578979, 0.560059, -0.535522, 1.831055, -8.666992, -0.854492
384471, 0.604736, 0.556641, -0.545532, 0.061035, -0.915528, 2.807618
384491, 0.648560, 0.571899, -0.538696, -0.427246, -0.244141, 2.807618
384511, 0.653442, 0.573975, -0.533936, 0.671387, -1.403809, -0.183106
384531, 0.636963, 0.565918, -0.537476, 1.037598, -2.624512, -1.037598
384551, 0.635498, 0.572266, -0.534180, 0.488281, -1.281738, -0.305176
384571, 0.646729, 0.567627, -0.525146, 0.488281, -1.159668, -0.244141
384591, 0.646973, 0.572876, -0.529053, 1.220703, -1.220703, -0.488281
384611, 0.643433, 0.562134, -0.535889, 1.220703, -2.258301, -0.976563
384631, 0.612915, 0.567139, -0.528320, 1.770020, 6.469728, -0.854492
384651, 0.658936, 0.564331, -0.557983, 0.793457, -3.173829, 2.746582
384671, 0.674438, 0.570679, -0.536133, -1.098633, -6.225588, -2.258301
384691, 0.620239, 0.569824, -0.514771, 1.525879, -5.737307, -2.990724
384711, 0.618530, 0.571655, -0.551392, 1.831055, -2.380371, -0.427246
384731, 0.634521, 0.566772, -0.543213, -0.061035, -0.488281, 0.000000
384751, 0.636597, 0.564453, -0.526245, 0.549316, -0.549316, -0.915528
384771, 0.638428, 0.567261, -0.538818, 1.037598, -0.976563, -1.342773
384791, 0.637207, 0.580200, -0.541260, 0.549316, -0.427246, -0.183106
384811, 0.639404, 0.566528, -0.531372, 1.220703, -1.525879, -0.122070
384831, 0.632935, 0.565430, -0.543091, 1.159668, -1.586915, -0.549316
384851, 0.636597, 0.568604, -0.551147, 0.366211, -2.014160, -0.732422
384891, 0.622070, 0.572266, -0.543335, 0.061035, -1.098633, -0.305176
384911, 0.629395, 0.565918, -0.537842, 0.122070, 0.122070, 0.610352
384931, 0.638184, 0.566040, -0.539307, -0.244141, -0.427246, 0.427246
384951, 0.644165, 0.572998, -0.536133, 0.183106, -0.366211, -0.671387
384971, 0.627319, 0.569702, -0.539917, 0.549316, -1.098633, -0.366211
384991, 0.629517, 0.575195, -0.546631, 0.122070, -0.183106, 0.732422
385011, 0.634766, 0.562744, -0.532593, 0.183106, -0.854492, -0.122070
385031, 0.634888, 0.573975, -0.543457, 0.061035, 0.183106, -0.244141
385051, 0.638794, 0.562134, -0.536621, -0.305176, -0.976563, -0.671387
385071, 0.631348, 0.576416, -0.538574, 0.061035, -0.976563, -0.671387
385091, 0.635742, 0.569336, -0.537720, 0.305176, -0.732422, -0.122070
385111, 0.632080, 0.569336, -0.539185, -0.061035, -0.732422, 0.000000
385131, 0.643066, 0.572510, -0.536499, -0.122070, -1.037598, 0.183106
385151, 0.634644, 0.564697, -0.534668, 0.244141, -1.708985, -0.305176
385171, 0.632324, 0.572754, -0.544434, 0.244141, -1.281738, -0.549316
385191, 0.629517, 0.573120, -0.537720, 0.183106, -0.732422, -0.061035
385211, 0.639404, 0.573853, -0.540405, 0.061035, -0.732422, -0.061035
385231, 0.637695, 0.565918, -0.534058, 0.183106, -2.746582, -0.427246
385251, 0.633423, 0.570923, -0.541260, 0.122070, -2.563477, -0.976563
385271, 0.632324, 0.567139, -0.538940, 0.061035, -2.380371, -0.793457
385291, 0.631714, 0.574585, -0.543945, 0.183106, -1.708985, -0.915528
385311, 0.625977, 0.571533, -0.539795, 0.183106, -1.159668, -0.366211
385331, 0.627930, 0.572144, -0.540283, 0.122070, -0.427246, 0.305176
385351, 0.634521, 0.572021, -0.537720, -0.061035, -0.671387, 0.305176
385371, 0.634888, 0.572632, -0.535156, 0.366211, -1.098633, -0.244141
385391, 0.630859, 0.573486, -0.548706, 0.183106, -0.549316, -0.488281
385411, 0.628296, 0.570923, -0.538086, 0.122070, -1.220703, -0.061035
385431, 0.628418, 0.573120, -0.541992, 0.305176, -0.549316, -0.183106
385451, 0.633545, 0.569702, -0.540283, 0.061035, -0.671387, -0.305176
385471, 0.633667, 0.573853, -0.539063, -0.061035, -0.488281, -0.488281
385491, 0.632813, 0.572388, -0.536499, 0.244141, -1.037598, -0.061035
385511, 0.630249, 0.576294, -0.542847, 0.671387, -0.915528, -0.183106
385531, 0.626587, 0.567627, -0.544312, 0.305176, -0.549316, -0.122070
385551, 0.633179, 0.568970, -0.537598, -0.122070, -0.549316, -0.061035
385571, 0.638306, 0.581299, -0.541870, 0.183106, -0.183106, -0.427246
385591, 0.630737, 0.568604, -0.533936, 0.488281, -1.586915, 0.244141
385611, 0.626221, 0.570679, -0.543091, 0.427246, -0.671387, -0.427246
385631, 0.629517, 0.571411, -0.543335, 0.244141, -0.732422, -0.732422
385671, 0.641724, 0.571899, -0.536865, 0.122070, -1.892090, 0.000000
385691, 0.637329, 0.571045, -0.536987, 0.366211, -2.990724, -1.342773
385711, 0.619019, 0.573364, -0.544678, 0.427246, -2.197266, -0.854492
385731, 0.624390, 0.573730, -0.542725, 0.061035, -1.342773, 0.000000
385751, 0.628906, 0.567017, -0.539917, 0.122070, -0.854492, -0.305176
385771, 0.632080, 0.569092, -0.537964, 0.122070, -1.159668, -0.305176
385791, 0.628662, 0.575073, -0.541382, 0.244141, -0.915528, -0.976563
385811, 0.623779, 0.571777, -0.540283, 0.122070, -0.671387, -0.610352
385831, 0.628174, 0.574341, -0.544312, -0.305176, -0.549316, -0.366211
385851, 0.632690, 0.570435, -0.536987, -0.122070, -1.037598, -0.305176
385871, 0.627563, 0.571533, -0.540527, 0.122070, -0.732422, -0.671387
385891, 0.625122, 0.573120, -0.544312, -0.305176, -0.061035, -0.305176
385911, 0.631226, 0.576904, -0.538574, -0.244141, -0.610352, 0.061035
385931, 0.633789, 0.570923, -0.536865, 0.183106, -0.915528, -0.610352
385951, 0.628296, 0.578247, -0.535645, 0.183106, -1.281738, -0.732422
385971, 0.625854, 0.580566, -0.540894, 0.671387, -0.793457, -0.488281
385991, 0.626831, 0.576050, -0.541992, 0.305176, -0.610352, -0.122070
386011, 0.629150, 0.573120, -0.534424, 0.549316, -1.098633, -0.122070
386031, 0.630127, 0.580566, -0.542480, 0.915528, -1.220703, -0.305176
386051, 0.623901, 0.572632, -0.541992, 0.976563, -1.037598, -0.915528
386071, 0.613403, 0.576538, -0.550049, 0.427246, -0.305176, -0.122070
386091, 0.628906, 0.580566, -0.542480, 0.305176, -0.122070, 0.488281
386111, 0.632080, 0.573242, -0.538330, 0.427246, -0.427246, -0.488281
386131, 0.625366, 0.582397, -0.537842, 0.671387, -0.732422, 15.197758
386151, 0.629028, 0.582642, -0.543701, 0.976563, -0.732422, 0.610352
386171, 0.631104, 0.572998, -0.537720, 1.159668, -0.854492, 0.366211
386191, 0.627441, 0.566895, -0.539917, 1.098633, -1.098633, -0.244141
386211, 0.632202, 0.577515, -0.547119, 0.488281, -1.403809, 0.488281
386231, 0.637451, 0.577026, -0.538208, 0.854492, -2.624512, 0.061035
386251, 0.622314, 0.570801, -0.543701, 0.976563, -3.112794, -0.061035
386271, 0.622925, 0.566895, -0.544678, 0.305176, -2.502441, -0.305176
386291, 0.617065, 0.571045, -0.543213, 0.000000, -1.708985, -0.488281
386311, 0.630005, 0.581055, -0.546753, 0.305176, -0.549316, 0.183106
386331, 0.635132, 0.554321, -0.538940, -0.122070, -1.098633, -0.305176
386351, 0.629639, 0.555054, -0.542114, -1.037598, -1.403809, -0.915528
386371, 0.622925, 0.564331, -0.549194, -1.647950, -1.708985, -0.732422
386391, 0.625854, 0.560059, -0.547607, -2.075195, -1.708985, -1.525879
386411, 0.622681, 0.549194, -0.544800, -3.173829, -1.220703, -2.624512
386431, 0.627686, 0.568604, -0.544800, -4.394531, -0.915528, -2.746582
386451, 0.626343, 0.586182, -0.535645, -4.577637, -0.427246, -2.380371
386471, 0.621216, 0.584961, -0.530884, -3.234864, -0.549316, -2.319336
386491, 0.619263, 0.589478, -0.537476, -3.051759, 1.220703, -1.464844
386511, 0.625122, 0.618652, -0.529297, -2.258301, 1.647950, -0.366211
386531, 0.629639, 0.622070, -0.527466, 1.464844, -0.183106, -0.183106
386551, 0.616943, 0.610474, -0.532593, 2.624512, -2.197266, 0.183106
386571, 0.615601, 0.601807, -0.535767, 3.295899, -1.831055, 0.854492
386591, 0.621338, 0.597046, -0.537964, 3.906251, -1.647950, 0.305176
386611, 0.622681, 0.593750, -0.540649, 4.699707, -2.502441, -0.122070
386631, 0.618042, 0.587158, -0.547485, 5.065918, -4.577637, -0.549316
386651, 0.612549, 0.563477, -0.549683, 4.455566, -4.333496, -0.976563
386671, 0.608521, 0.555664, -0.556152, 3.356935, -2.624512, -1.586915
386691, 0.612915, 0.551636, -0.557007, 2.136230, 0.671387, -1.525879
386711, 0.633301, 0.560059, -0.550781, 0.549316, 0.793457, -0.854492
386731, 0.630493, 0.573486, -0.540527, 0.122070, 0.122070, -0.366211
386751, 0.628052, 0.582520, -0.537354, 0.732422, -0.366211, -0.305176
386771, 0.619629, 0.587036, -0.542480, 0.549316, -0.671387, -0.061035
386791, 0.617188, 0.601807, -0.540527, 0.915528, -0.671387, 0.793457
386811, 0.618530, 0.587524, -0.540771, 2.075195, -0.671387, 1.220703
386831, 0.617310, 0.565308, -0.547363, 1.525879, -0.610352, 0.305176
386851, 0.615112, 0.567505, -0.557617, 0.854492, -0.244141, -0.183106
386871, 0.617432, 0.573120, -0.559204, 0.854492, 0.671387, -0.244141
386891, 0.625610, 0.575317, -0.544678, 1.037598, 0.915528, -0.793457
386911, 0.631592, 0.584595, -0.535278, 1.831055, 0.915528, -0.732422
386931, 0.631592, 0.587158, -0.538574, 2.258301, 0.244141, -1.342773
386951, 0.618408, 0.592773, -0.540894, 2.990724, 0.305176, -0.732422
386971, 0.624023, 0.582275, -0.538452, 3.723145, 0.610352, 0.427246
386991, 0.630859, 0.570557, -0.539307, 3.173829, -0.122070, -0.244141
387011, 0.627441, 0.571533, -0.545532, 2.746582, -2.502441, -1.098633
387031, 0.619019, 0.568359, -0.557983, 2.502441, -4.638672, -1.464844
387051, 0.599243, 0.557007, -0.564697, 1.281738, -3.234864, -1.770020
387071, 0.591431, 0.561523, -0.560547, -0.244141, 0.366211, -1.098633
387091, 0.634399, 0.576660, -0.544922, -0.915528, 1.281738, 0.061035
387111, 0.639160, 0.577148, -0.535034, -0.244141, -0.488281, -0.854492
387131, 0.620850, 0.580811, -0.546265, 0.488281, -0.976563, -1.037598
387151, 0.612793, 0.588135, -0.558838, 0.366211, -0.488281, 0.244141
387171, 0.619019, 0.578369, -0.546875, 0.366211, -0.427246, 0.671387
387191, 0.622681, 0.578857, -0.541016, 0.854492, -0.549316, 0.427246
387211, 0.623779, 0.582520, -0.545654, 1.220703, -0.793457, 0.549316
387231, 0.621338, 0.582642, -0.546631, 1.281738, -0.793457, 0.549316
387251, 0.615967, 0.575928, -0.543823, 1.159668, -0.976563, 0.671387
387271, 0.617676, 0.577881, -0.550171, 0.915528, -1.098633, 0.732422
387291, 0.625488, 0.552124, -0.545898, 0.061035, -1.586915, -0.061035
387311, 0.627075, 0.557129, -0.550049, -0.915528, -1.708985, 0.244141
387331, 0.626587, 0.566040, -0.553467, -1.342773, -1.953125, 0.183106
387351, 0.614014, 0.574585, -0.554688, -1.159668, -1.892090, -0.915528
387371, 0.603027, 0.585083, -0.558716, -1.037598, -1.037598, -0.915528
387391, 0.610352, 0.596313, -0.552856, -0.854492, -0.061035, 0.122070
387411, 0.626343, 0.592651, -0.537354, 0.488281, 0.000000, 0.488281
387431, 0.628784, 0.586792, -0.536377, 1.953125, -0.183106, -0.122070
387451, 0.623413, 0.582031, -0.546143, 2.685547, -0.366211, -0.488281
387471, 0.621094, 0.569458, -0.550537, 2.502441, -0.366211, -0.122070
387491, 0.622192, 0.562500, -0.550049, 2.075195, -0.610352, -0.610352
387511, 0.616455, 0.562134, -0.555176, 1.159668, -0.366211, -1.159668
387531, 0.616455, 0.568359, -0.554810, 0.366211, -0.671387, -1.098633
387551, 0.614258, 0.577148, -0.553711, 0.244141, -0.793457, -0.976563
387571, 0.613403, 0.573364, -0.550293, 0.000000, -0.122070, -0.671387
387591, 0.620361, 0.573242, -0.549316, -0.427246, -0.244141, -0.427246
387611, 0.626099, 0.580322, -0.550293, -0.305176, -0.488281, -0.366211
432454, 0.776123, 0.584351, -0.192383, -0.549316, 0.915528, 1.342773
432474, 0.771484, 0.595825, -0.184570, -0.793457, 2.685547, 2.624512
432494, 0.806274, 0.579834, -0.186401, -0.610352, 5.554201, 2.746582
432514, 0.793213, 0.583008, -0.184082, -1.586915, 3.601075, 2.258301
432534, 0.814941, 0.586426, -0.175781, -1.403809, 1.586915, 1.647950
432554, 0.797363, 0.583984, -0.181030, -1.525879, 1.586915, 1.037598
432574, 0.806885, 0.579956, -0.179199, -1.831055, 1.098633, 0.488281
432594, 0.796387, 0.583008, -0.172363, -2.319336, -0.915528, 0.366211
432614, 0.819946, 0.586548, -0.151489, -0.976563, -2.563477, -0.427246
432634, 0.796265, 0.585693, -0.171387, 0.122070, -3.601075, -2.075195
432654, 0.762695, 0.582275, -0.208008, -1.159668, -1.464844, -1.098633
432674, 0.709717, 0.582520, -0.211426, -3.417970, 6.591799, 2.502441
432694, 0.591797, 0.594849, -0.209839, -6.225588, 30.090340, 9.521484
432714, 0.520020, 0.697144, -0.188599, -6.103518, 83.801270, 22.033691
432734, 0.935669, 0.821899, -0.170166, 9.643555, 91.980011, 4.882813
432754, 0.935425, 0.701172, -0.109131, 20.019531, 46.813980, -9.704590
432774, 0.863403, 0.556763, -0.045654, 30.700691, 4.638672, -15.930180
432794, 0.790283, 0.458740, -0.111084, 15.808109, 6.958010, -9.399414
432814, 0.841797, 0.454590, -0.018799, 4.882813, 21.728516, -3.417970
432834, 0.874023, 0.411621, 0.025635, -0.976563, 25.085457, 0.671387
432854, 1.039063, 0.497314, 0.047974, 0.244141, 6.164553, 0.671387
432874, 1.143188, 0.583740, 0.028442, 6.591799, -36.010742, -15.319828
432894, 0.979858, 0.599243, 0.010620, 13.549809, -75.012207, -29.724129
432914, 0.830200, 0.585815, -0.139160, 13.793949, -106.323273, -32.775879
432934, 0.573364, 0.517090, -0.098389, -50.537125, -47.851578, -11.901859
432954, 0.667725, 0.608521, 0.058350, -48.217789, -16.479492, -1.098633
432974, 0.714966, 0.592651, -0.028809, -56.762711, 2.746582, 10.131836
432994, 0.807617, 0.761841, -0.058960, -34.606934, -11.901859, 6.286623
433014, 0.794800, 0.663940, -0.320435, -8.117676, -14.587406, -2.807618
433034, 0.800293, 0.678589, -0.351318, 5.249023, -24.292000, -9.765625
433054, 0.778198, 0.528198, -0.555176, -6.347658, -6.103518, -17.639160
433074, 0.838013, 0.420288, -0.277832, -26.977547, 3.356935, -21.911621
433094, 0.437378, 0.411255, -0.032349, -8.117676, 3.784181, 20.751953
433114, 0.779297, 0.557739, -0.052734, -0.244141, 30.761726, 35.461426
433134, 0.917236, 0.705078, -0.067383, 5.187988, 21.118164, 20.690918
433154, 0.895142, 0.806763, -0.056030, 4.333496, -9.338379, 5.187988
433174, 0.777344, 0.858643, -0.037109, 5.126953, -31.860359, -13.671879
433194, 0.322388, 0.720947, -0.038330, 9.704590, -23.315437, 0.610352
433214, 0.413696, 0.911011, -0.307495, -3.417970, 21.240234, 21.240234
433234, 0.750000, 0.859863, -0.052490, -22.766121, 42.907715, 2.990724
433254, 0.796631, 0.784546, -0.071533, -15.380863, 35.766602, -2.624512
433274, 0.893311, 0.702881, 0.037231, -6.347658, -0.793457, -10.803223
433294, 0.903442, 0.636841, -0.021973, 1.525879, -16.174316, -17.822266
433314, 0.916260, 0.454224, -0.053101, 8.117676, -42.297363, -25.756844
433334, 0.850220, 0.395996, -0.188599, 11.535648, -39.184570, -18.615723
433354, 0.837036, 0.404175, -0.232788, 9.094238, -26.794441, -13.122562
433374, 0.839478, 0.412354, -0.312988, 7.080080, -5.004883, -8.605957
433394, 0.874512, 0.546631, -0.384644, -5.554201, 8.666992, -12.084965
433414, 0.835693, 0.626831, -0.203247, -17.456055, 2.624512, -20.263672
433434, 0.747559, 0.657471, -0.109497, -18.554688, -7.507326, -20.812988
433454, 0.663940, 0.685791, -0.026367, -12.634281, -12.939457, -15.686039
433474, 0.629639, 0.699707, 0.000122, -1.892090, -16.723633, -7.019045
433494, 0.622070, 0.694458, -0.031006, 8.972168, -15.563969, 2.990724
433514, 0.695435, 0.661499, -0.140991, 16.662598, -18.432617, 13.061527
433534, 0.702515, 0.651245, -0.206909, 15.441898, -19.897461, 16.906738
