timestamp,ax,ay,az,gx,gy,gz
1647380, 0.563599, 0.688965, -0.493286, 123.413116, -30.334480, 20.202637
1647400, 0.524536, 0.377930, -0.731812, 102.478058, -38.757324, 16.723633
1647420, 0.415161, 0.333984, -0.694458, 79.101563, -27.526863, 9.582520
1647440, 0.407593, 0.470093, -0.691162, 76.416016, -15.258793, 1.647950
1647460, 0.412109, 0.559814, -0.768311, 82.885742, -7.324221, -1.403809
1647520, 0.393066, 0.474976, -0.847168, 91.369659, -5.249023, 10.314941
1647540, 0.372559, 0.417236, -0.860840, 88.012695, -8.117676, 14.038090
1647560, 0.375732, 0.423218, -0.869141, 87.158203, 10.986328, 13.488773
1647580, 0.424683, 0.285645, -0.854858, 87.280273, 8.850098, 10.620117
1647600, 0.417480, 0.165405, -0.887451, 69.946289, 2.868653, 4.760742
1647620, 0.402344, 0.203857, -0.893921, 46.936050, 0.244141, 6.713869
1647640, 0.403198, 0.260132, -0.873657, 38.330078, -3.479005, 12.084965
1647660, 0.434326, 0.233398, -0.889893, 36.743164, 5.615236, 5.004883
1647680, 0.433960, 0.209595, -0.863892, 33.874512, 17.211914, -1.342773
1647700, 0.407715, 0.198730, -0.877563, 29.418953, 21.423340, 2.197266
1647720, 0.417358, 0.152710, -0.897827, 18.798828, 35.095215, 5.676271
1647740, 0.466797, 0.170776, -0.815308, 1.708985, 52.124039, 11.047363
1647760, 0.447632, 0.251831, -0.778198, -4.211426, 61.218277, 16.174316
1647780, 0.564453, 0.232788, -0.709595, -4.455566, 73.059082, 11.962894
1647800, 0.705933, 0.203003, -0.650146, 3.356935, 70.495605, -2.441406
1647820, 0.701050, 0.159302, -0.633789, 8.056641, 44.921890, -14.282230
1647840, 0.683838, 0.255615, -0.668457, 5.798342, 25.756844, -14.892582
1647860, 0.709473, 0.234131, -0.669434, -2.380371, 11.169437, -22.521980
1647880, 0.646484, 0.249390, -0.770874, -6.469728, 7.385256, -18.005371
1647900, 0.692871, 0.433716, -0.896118, -8.789063, 25.024422, -6.408693
1647920, 0.662354, 0.374634, -0.754395, -2.258301, 22.888191, 5.798342
1647940, 0.622070, 0.195190, -0.709961, -6.713869, 17.089844, 7.324221
1647960, 0.647949, 0.234253, -0.695435, -7.568361, 12.573246, -0.854492
1647980, 0.673950, 0.268066, -0.705078, 0.488281, 5.798342, -7.080080
1648000, 0.654175, 0.260010, -0.754028, 2.563477, -0.488281, -7.507326
1648020, 0.638672, 0.267822, -0.764771, -0.671387, -1.831055, -3.112794
1648040, 0.622803, 0.252930, -0.740234, 0.305176, 2.441406, 1.098633
1648060, 0.636475, 0.277344, -0.744507, 1.098633, 3.723145, 4.638672
1648080, 0.644409, 0.242432, -0.760254, -3.173829, 7.324221, 2.563477
1648100, 0.644165, 0.232178, -0.712891, -5.920412, 3.479005, -0.488281
1648120, 0.651001, 0.234741, -0.738159, -6.042482, -2.746582, -7.324221
1648140, 0.627441, 0.264038, -0.756348, -7.263186, -4.028320, -8.239746
1648160, 0.632080, 0.274048, -0.757935, -7.812502, -5.187988, -6.164553
1648180, 0.634766, 0.266113, -0.746460, -10.681152, -5.310059, -2.563477
1648200, 0.650146, 0.268066, -0.715942, -13.488773, -5.493164, -0.671387
1648220, 0.639404, 0.256958, -0.693359, -14.160160, -5.676271, -3.479005
1648240, 0.633789, 0.281494, -0.706787, -11.657719, -5.310059, -6.652834
1648260, 0.621826, 0.290649, -0.732056, -9.094238, -5.859377, -10.070801
1648280, 0.618408, 0.329956, -0.754517, -7.690432, -4.455566, -10.925293
1648300, 0.635986, 0.348633, -0.753540, -4.150391, -7.446291, -9.887695
1648320, 0.589722, 0.322998, -0.757568, -1.037598, -5.310059, -5.126953
1648340, 0.601074, 0.298950, -0.749634, -5.004883, -3.417970, -3.662110
1648360, 0.619507, 0.302856, -0.722534, -5.859377, -4.333496, -4.089355
1648380, 0.614136, 0.275635, -0.726196, -7.934572, -5.065918, -4.333496
1648400, 0.615479, 0.281372, -0.737061, -14.160160, -4.699707, -3.051759
1648420, 0.617798, 0.318726, -0.719116, -15.319828, -3.845216, -3.417970
1648440, 0.624512, 0.329834, -0.717163, -10.192871, -4.211426, -6.225588
1648460, 0.610718, 0.336304, -0.738770, -7.751467, -2.807618, -9.216309
1648480, 0.591919, 0.362183, -0.744873, -5.554201, -2.685547, -10.559082
1648500, 0.590454, 0.317627, -0.744507, -4.882813, -2.380371, -9.765625
1648520, 0.593018, 0.287842, -0.738892, -8.361816, -4.760742, -13.244633
1648540, 0.588135, 0.237549, -0.720215, -14.770512, -6.408693, -18.249512
1648560, 0.588867, 0.201416, -0.714233, -23.620613, -7.751467, -27.832039
1648580, 0.562256, 0.193848, -0.702026, -34.301758, -10.070801, -41.137695
1648600, 0.561768, 0.241577, -0.717285, -47.424332, -10.192871, -47.607437
1648620, 0.519287, 0.346191, -0.712280, -55.236832, -4.455566, -51.513687
1648640, 0.517578, 0.554443, -0.729980, -45.654312, 5.554201, -49.743668
1648660, 0.525635, 0.686035, -0.780518, -30.273445, 6.530764, -43.518066
1648680, 0.436401, 0.655273, -0.773926, -16.784668, -14.770512, -11.352543
1648700, 0.534424, 0.533203, -0.615112, -16.540527, 4.882813, 8.911133
1648720, 0.607910, 0.447510, -0.606445, -18.737793, 14.953617, 0.366211
1648740, 0.591553, 0.438110, -0.641357, -25.329597, 9.765625, -10.681152
1648760, 0.568237, 0.498413, -0.663452, -32.287598, 4.882813, -11.413578
1648780, 0.542847, 0.679077, -0.697754, -31.738289, 9.521484, -0.671387
1648800, 0.591797, 0.733154, -0.661499, -17.700195, 21.423340, 12.451176
1648820, 0.628540, 0.607178, -0.592651, -3.051759, 10.559082, 9.033203
1648840, 0.602783, 0.488281, -0.617065, -2.868653, -0.183106, 5.065918
1648860, 0.581299, 0.471558, -0.634644, -8.605957, -2.563477, 4.455566
1648880, 0.551025, 0.524048, -0.627930, -7.995607, -9.948730, 10.009766
1648900, 0.592651, 0.517578, -0.660645, -12.634281, 3.479005, 1.770020
1648920, 0.538818, 0.533813, -0.641724, -12.329105, 3.906251, 1.403809
1648940, 0.546143, 0.534790, -0.662720, -12.146000, 2.746582, -2.258301
1648960, 0.527466, 0.609985, -0.653320, -4.455566, 6.530764, 0.427246
1648980, 0.576538, 0.549072, -0.632935, -1.037598, 12.878422, 3.417970
1649000, 0.597412, 0.554321, -0.602417, -2.136230, 10.803223, 2.075195
1649020, 0.623779, 0.558960, -0.617065, -1.586915, 4.150391, 0.244141
1649040, 0.590454, 0.542236, -0.619995, -1.892090, 0.732422, -1.647950
1649080, 0.580811, 0.562500, -0.618652, 0.488281, 13.183598, -0.915528
1649100, 0.602417, 0.575684, -0.633667, 5.798342, 7.446291, -6.347658
1649120, 0.588989, 0.587280, -0.644897, 11.413578, -2.624512, -17.150879
1649140, 0.546875, 0.553711, -0.637817, 10.864258, -0.183106, -19.226074
1649160, 0.580444, 0.556885, -0.612427, 9.704590, 4.272461, -17.883301
1649180, 0.594604, 0.563843, -0.621338, 11.108402, -2.197266, -19.714355
1649200, 0.575317, 0.588989, -0.622559, 8.239746, -7.690432, -20.385742
1649220, 0.585815, 0.606323, -0.627197, 5.798342, -6.408693, -21.728516
1649240, 0.581299, 0.619507, -0.632446, 7.019045, -15.869144, -29.296883
1649260, 0.514404, 0.570435, -0.626343, 3.906251, -8.789063, -28.991707
1649280, 0.551025, 0.594360, -0.632202, 2.136230, -9.643555, -28.747566
1649300, 0.563477, 0.609741, -0.630249, -0.183106, -12.329105, -30.212410
1649320, 0.546143, 0.603516, -0.633179, -1.281738, -20.263672, -32.470703
1649340, 0.521973, 0.576172, -0.657593, -5.554201, -26.428230, -28.320320
1649360, 0.536011, 0.568359, -0.651001, -9.948730, -29.174812, -24.658211
1649380, 0.559937, 0.592529, -0.648193, -14.831547, -40.710449, -19.775391
1649400, 0.538208, 0.590942, -0.685547, -22.949226, -54.748550, -16.845703
1649420, 0.515869, 0.609985, -0.649536, -29.235847, -67.321777, -11.352543
1649440, 0.469727, 0.630859, -0.585205, -28.198250, -54.382339, -15.136723
1649460, 0.408569, 0.593140, -0.638184, -25.634773, -44.860855, -7.446291
1649480, 0.375366, 0.590820, -0.635864, -19.470215, -42.419434, -1.892090
1649500, 0.367432, 0.614746, -0.651245, -16.174316, -34.667969, 4.394531
1649520, 0.375244, 0.620361, -0.648804, -12.268070, -28.198250, 6.896975
1649540, 0.349976, 0.613647, -0.688721, -7.568361, -31.005867, 11.535648
1649560, 0.348877, 0.640869, -0.674438, -8.911133, -27.832039, 15.502934
1649580, 0.309692, 0.630249, -0.676758, -7.507326, -13.366703, 19.775391
1649600, 0.335205, 0.644653, -0.670898, -4.882813, 1.892090, 22.949226
1649620, 0.390381, 0.644775, -0.669678, -3.662110, 5.249023, 21.667480
1649640, 0.363770, 0.623535, -0.651611, 0.976563, 17.028809, 23.498543
1649660, 0.403564, 0.625732, -0.677246, 4.089355, 18.981934, 20.080566
1649680, 0.427002, 0.627319, -0.673828, 8.239746, 16.113281, 14.099125
1649700, 0.414429, 0.618164, -0.658447, 12.573246, 15.991215, 13.427738
1649720, 0.422119, 0.640991, -0.716187, 14.160160, 14.099125, 9.582520
1649740, 0.405151, 0.614624, -0.678833, 13.000492, 11.169437, 6.774904
1649760, 0.369995, 0.629517, -0.661865, 17.211914, 18.920898, 7.446291
1649780, 0.397095, 0.594727, -0.703003, 16.662598, 23.742683, 6.408693
1649800, 0.372559, 0.625366, -0.672974, 20.141602, 33.874512, 5.432129
1649820, 0.411621, 0.595581, -0.708374, 19.775391, 45.898453, 4.821777
1649840, 0.445313, 0.617920, -0.700439, 15.380863, 53.161636, 3.479005
1649860, 0.511597, 0.606079, -0.621094, 16.357422, 46.752945, 2.258301
1649880, 0.531616, 0.622192, -0.651978, 16.601563, 39.062500, 0.183106
1649900, 0.516235, 0.605103, -0.650635, 14.160160, 35.644531, -0.610352
1649920, 0.542969, 0.607544, -0.607910, 15.686039, 36.376953, -2.929688
1649940, 0.550415, 0.595093, -0.634644, 16.113281, 33.630371, -6.042482
1649960, 0.586426, 0.592285, -0.614014, 12.390141, 24.230965, -5.798342
1649980, 0.577881, 0.600830, -0.613281, 8.544922, 18.005371, -4.516602
1650000, 0.564453, 0.593628, -0.600220, 13.488773, 11.108402, -9.460449
1650020, 0.565918, 0.578003, -0.632202, 10.192871, 6.408693, -9.399414
1650040, 0.535278, 0.567505, -0.628906, 7.141115, 6.774904, -6.652834
1650060, 0.578491, 0.572388, -0.612183, 3.295899, 5.004883, -3.051759
1650080, 0.579346, 0.579468, -0.609253, 1.770020, -0.915528, -1.770020
1650100, 0.550049, 0.578613, -0.616089, 0.976563, -4.760742, -0.915528
1650120, 0.540161, 0.570435, -0.640869, 0.488281, -4.638672, -0.671387
1650140, 0.534546, 0.569702, -0.638184, -0.488281, -4.150391, -0.427246
1650160, 0.536865, 0.576782, -0.628662, -0.671387, -4.394531, -0.061035
1650180, 0.538574, 0.577393, -0.625000, -0.061035, -5.004883, 0.366211
1650200, 0.543091, 0.574707, -0.634399, 0.244141, -5.187988, 0.305176
1650220, 0.537476, 0.574707, -0.637939, 0.061035, -5.432129, -0.183106
1650240, 0.537964, 0.579346, -0.621826, 0.793457, -4.516602, -0.427246
1650260, 0.547241, 0.579956, -0.625122, 2.075195, -4.638672, -1.098633
1650280, 0.520020, 0.582886, -0.634888, 3.051759, -2.319336, -1.281738
1650300, 0.520996, 0.611084, -0.652222, 4.333496, 4.333496, -0.610352
1650320, 0.537964, 0.653320, -0.663086, 7.446291, 14.099125, 2.014160
1650340, 0.670410, 0.817505, -0.627563, 14.526371, 11.840824, 0.671387
