timestamp,ax,ay,az,gx,gy,gz
1248221, 0.174561, 0.964111, -0.223267, 1.770020, -3.417970, 0.000000
1248241, 0.203613, 0.957031, -0.222778, 2.319336, -0.976563, 1.464844
1248261, 0.196899, 0.954590, -0.216797, 3.845216, 0.610352, 2.014160
1248281, 0.207764, 0.950073, -0.245239, 3.784181, 2.197266, 2.868653
1248301, 0.223267, 0.951660, -0.245239, 2.807618, 1.953125, 2.807618
1248321, 0.220947, 0.952759, -0.245850, 2.136230, 1.464844, 2.441406
1248341, 0.225586, 0.948975, -0.244507, 1.403809, 0.793457, 2.380371
1248361, 0.206299, 0.953125, -0.235840, 1.037598, 1.220703, 2.136230
1248381, 0.208496, 0.951538, -0.237427, 1.159668, 2.380371, 3.479005
1248401, 0.224121, 0.953369, -0.232422, 1.403809, 2.502441, 3.845216
1248421, 0.228516, 0.949585, -0.242188, 1.586915, 2.319336, 3.540040
1248441, 0.227661, 0.947510, -0.250122, 0.610352, 1.892090, 3.417970
1248461, 0.237183, 0.950195, -0.235474, 0.061035, 1.403809, 3.234864
1248481, 0.255371, 0.955444, -0.220215, 1.037598, 1.281738, 1.647950
1248501, 0.263428, 0.955322, -0.215942, 2.868653, -0.122070, -0.610352
1248521, 0.255493, 0.954102, -0.237305, 3.906251, -1.220703, -3.234864
1248541, 0.208252, 0.968018, -0.246826, 3.784181, -1.831055, -3.662110
1248561, 0.028320, 0.967896, -0.251709, 3.479005, 2.380371, 12.756351
1248581, 0.151733, 1.002197, -0.071533, 21.179199, -7.568361, 29.174812
1248601, 0.292358, 1.062988, -0.161865, 51.269547, -18.676758, 36.437988
1248621, 0.460327, 1.183350, -0.473022, 73.364258, -34.912109, 41.320801
1248641, 0.510132, 1.169312, -0.585571, 99.792511, -65.856934, 40.832520
1248661, 0.394775, 1.035767, -0.607300, 134.399414, -91.613800, 39.184570
1248681, 0.218140, 0.821289, -0.788208, 149.902344, -93.505890, 23.620613
1248701, 0.030396, 0.607666, -1.058350, 127.746613, -33.996582, -10.253906
1248721, -0.025513, 0.442383, -1.052856, 90.332062, 21.240234, -24.963387
1248741, 0.017090, 0.319092, -0.702881, 54.077164, 49.621597, -10.681152
1248761, 0.158936, 0.295288, -0.560059, 31.616219, 60.729996, -3.173829
1248781, 0.308105, 0.393066, -0.482178, 9.155273, 80.383301, -3.295899
1248801, 0.385498, 0.616455, -0.325684, -8.178711, 87.585449, -1.037598
1248821, 0.421509, 0.793335, -0.189453, -10.253906, 50.170914, 3.417970
1248841, 0.393066, 0.851807, -0.235229, -17.761230, 20.751953, 4.211426
1248861, 0.371826, 0.857910, -0.289673, -39.184570, -0.427246, 3.784181
1248881, 0.366089, 0.976685, -0.178345, -49.316422, -6.713869, -3.112794
1248901, 0.368896, 1.029663, -0.119263, -43.090820, -20.141602, -16.662598
1248921, 0.366943, 0.997070, -0.189941, -39.306641, -33.081055, -36.682129
1248941, 0.126099, 1.115601, -0.414429, -56.823746, -31.494148, -41.198730
1248961, -0.029541, 1.257324, -0.386719, -66.284180, -8.605957, 3.173829
1248981, 0.204712, 1.286743, -0.142944, -37.475586, 13.000492, 37.231445
1249001, 0.425659, 0.911377, -0.224854, -3.356935, 18.432617, 30.456551
1249021, 0.468262, 0.802124, -0.480225, -0.061035, 7.995607, 10.986328
1249041, 0.387573, 0.887329, -0.419678, -5.859377, -8.361816, 3.540040
1249061, 0.340210, 0.933472, -0.396729, -0.366211, -29.357918, 4.455566
1249081, 0.253418, 0.883301, -0.467285, -2.502441, -26.428230, 5.554201
1249101, 0.245117, 0.877319, -0.423218, -4.638672, -14.709476, 7.568361
1249121, 0.268311, 0.867432, -0.421143, -5.310059, -0.061035, 9.521484
1249141, 0.294678, 0.875488, -0.403931, -5.493164, 7.263186, 9.033203
1249161, 0.328613, 0.875488, -0.396118, -4.882813, 8.056641, 8.056641
1249181, 0.342651, 0.873413, -0.393188, -4.089355, 7.568361, 5.126953
1249201, 0.339355, 0.879272, -0.378418, -3.112794, 4.699707, 3.295899
1249221, 0.333008, 0.882690, -0.371826, -0.610352, 1.953125, 1.953125
1249241, 0.350464, 0.881226, -0.371338, 1.403809, -0.915528, 0.244141
1249261, 0.356201, 0.878906, -0.374268, 3.784181, -2.380371, -3.051759
1249281, 0.331421, 0.877563, -0.375122, 5.554201, -5.981447, -5.310059
1249301, 0.293213, 0.881226, -0.367432, 8.422852, -6.774904, -5.187988
1249321, 0.289307, 0.868408, -0.416260, 10.009766, -2.990724, -2.868653
1249341, 0.316528, 0.858643, -0.442139, 8.178711, -3.723145, -2.868653
1249361, 0.316528, 0.857056, -0.451660, 5.004883, -5.554201, -4.028320
1249381, 0.264404, 0.860596, -0.445313, 2.380371, -2.258301, -3.906251
1249401, 0.249634, 0.860229, -0.447021, -0.244141, 2.807618, -0.732422
1249421, 0.284180, 0.863770, -0.429932, -2.075195, 3.723145, 1.892090
1249441, 0.291382, 0.870239, -0.414551, -2.807618, 2.014160, 2.929688
1249461, 0.286987, 0.873413, -0.395630, -1.708985, 1.586915, 4.455566
1249481, 0.312378, 0.868408, -0.410278, -0.854492, 2.014160, 4.638672
1249501, 0.316895, 0.868896, -0.409180, -1.770020, 1.281738, 3.417970
1249521, 0.299072, 0.874023, -0.381958, -0.061035, 2.685547, 3.173829
1249541, 0.301636, 0.872192, -0.390869, 2.014160, 4.760742, 3.906251
1249561, 0.323608, 0.865601, -0.407715, 2.929688, 5.920412, 3.479005
1249581, 0.332031, 0.863403, -0.405884, 2.746582, 5.126953, 2.319336
1249601, 0.339233, 0.865601, -0.410645, 3.173829, 2.685547, 1.098633
1249621, 0.324951, 0.862061, -0.415039, 2.685547, 2.319336, -0.061035
1249641, 0.318237, 0.867188, -0.406128, 2.868653, 3.295899, -0.610352
1249661, 0.303955, 0.862549, -0.409546, 2.990724, 4.211426, -0.305176
1249681, 0.279907, 0.871094, -0.389893, 4.028320, 5.554201, 1.708985
1249701, 0.301758, 0.853027, -0.427734, 5.310059, 8.117676, 5.859377
1249721, 0.341064, 0.858398, -0.434448, 3.234864, 8.728027, 5.676271
1249741, 0.354492, 0.854614, -0.420044, 2.258301, 6.713869, 4.333496
1249761, 0.367554, 0.851563, -0.423950, 1.220703, 2.624512, 2.319336
1249781, 0.357056, 0.852051, -0.414795, 0.244141, -0.366211, 0.366211
1249801, 0.347412, 0.861450, -0.403564, 0.793457, -3.173829, -0.549316
1249821, 0.351074, 0.859375, -0.412842, 1.098633, -3.723145, -1.770020
1249841, 0.352905, 0.856689, -0.414795, 1.159668, -4.333496, -3.906251
1249861, 0.325806, 0.853638, -0.421509, 0.488281, -4.333496, -4.821777
1249881, 0.313354, 0.861694, -0.405151, 0.732422, -4.455566, -3.234864
1249901, 0.310547, 0.860840, -0.418823, 1.037598, -3.601075, -2.502441
1249921, 0.300415, 0.861206, -0.414185, 0.732422, -1.770020, -1.525879
1249941, 0.294800, 0.859253, -0.414429, 1.281738, 0.549316, 0.122070
1249961, 0.298584, 0.858154, -0.420166, 0.854492, 2.990724, 1.892090
1249981, 0.315918, 0.857666, -0.420532, 0.610352, 4.760742, 2.807618
1250001, 0.334595, 0.855957, -0.418335, 0.122070, 4.821777, 2.746582
1250021, 0.355713, 0.855347, -0.423462, -0.305176, 3.295899, 1.281738
1250041, 0.362427, 0.855103, -0.424194, -1.586915, 0.793457, -0.854492
1250061, 0.344849, 0.864624, -0.398682, -1.159668, -1.708985, -2.685547
1250082, 0.316650, 0.860107, -0.407104, 0.427246, -1.708985, -2.746582
1250102, 0.312988, 0.860840, -0.410156, 0.732422, -0.915528, -1.647950
1250122, 0.328247, 0.857544, -0.421143, 0.610352, -0.793457, -1.525879
1250142, 0.328979, 0.860840, -0.411133, 0.000000, -1.708985, -1.708985
1250162, 0.313599, 0.863281, -0.408447, 0.732422, -0.793457, -1.892090
1250182, 0.299194, 0.861206, -0.410522, 0.915528, 1.220703, -0.671387
1250202, 0.300293, 0.860352, -0.416992, 1.098633, 2.868653, 0.976563
1250222, 0.314575, 0.858032, -0.417969, 0.610352, 3.173829, 2.441406
1250242, 0.323486, 0.859863, -0.409424, 0.061035, 4.943848, 2.746582
1250262, 0.342896, 0.861328, -0.403931, 0.854492, 4.333496, 2.563477
1250282, 0.347534, 0.857422, -0.413452, 0.793457, 2.502441, 1.464844
1250302, 0.342407, 0.859497, -0.404907, 0.976563, 1.159668, 0.671387
1250322, 0.346069, 0.860840, -0.405029, 1.647950, -0.122070, -0.122070
1250342, 0.343140, 0.859863, -0.408203, 2.136230, -1.525879, -0.915528
1250362, 0.340698, 0.855469, -0.417114, 1.953125, -2.685547, -1.525879
1250382, 0.320068, 0.857788, -0.414429, 1.525879, -2.502441, -1.586915
1250402, 0.310181, 0.859863, -0.417358, 1.403809, -1.831055, -0.122070
1250422, 0.319214, 0.846924, -0.440063, 0.366211, -0.305176, 1.220703
1250442, 0.347168, 0.854248, -0.420898, -2.746582, 0.671387, -0.427246
1250462, 0.360840, 0.856812, -0.417847, -3.173829, 0.000000, -2.075195
1250482, 0.313965, 0.818115, -0.417603, -4.882813, 5.310059, 0.732422
1250502, 0.330688, 0.842163, -0.381836, -6.103518, 2.624512, 12.390141
1250522, 0.410767, 0.843506, -0.399536, -5.065918, 3.906251, 13.671879
1250542, 0.477783, 0.853149, -0.406982, -4.089355, 1.281738, 6.469728
1250562, 0.488281, 0.853149, -0.417480, -3.051759, -7.812502, -6.835939
1250582, 0.417725, 0.853394, -0.414185, -3.479005, -18.188477, -13.916019
1250602, 0.330444, 0.866089, -0.400146, -3.234864, -24.780281, -16.540527
1250622, 0.222534, 0.859009, -0.402222, -2.319336, -21.728516, -13.000492
1250642, 0.157349, 0.870117, -0.377930, -2.136230, -9.399414, -0.854492
1250662, 0.200317, 0.896484, -0.373779, 0.549316, -1.770020, 6.469728
1250682, 0.278076, 0.909058, -0.428467, 1.159668, 2.990724, 2.258301
1250702, 0.265869, 0.875488, -0.435791, -2.197266, 6.347658, -4.882813
1250722, 0.238647, 0.882568, -0.357178, -0.976563, 4.516602, 1.831055
1250742, 0.249756, 0.874878, -0.375366, 3.295899, 11.413578, 6.591799
1250762, 0.315674, 0.862183, -0.426758, 3.173829, 19.165039, 7.934572
1250782, 0.386353, 0.854126, -0.455322, -0.122070, 20.690918, 4.211426
1250802, 0.370483, 0.858643, -0.457153, -5.065918, 18.493652, 0.183106
1250822, 0.282227, 0.893921, -0.390259, -8.300781, 23.315437, -0.244141
1250842, 0.254272, 0.923950, -0.357910, -6.103518, 36.499023, 3.662110
1250862, 0.349365, 0.916504, -0.349487, -4.882813, 40.222168, 2.807618
1250882, 0.402466, 0.988403, -0.312256, 3.356935, 30.212410, 7.751467
1250902, 0.430420, 0.983032, -0.299194, 16.967773, 6.652834, 19.714355
1250922, 0.447144, 0.895020, -0.378174, 24.841316, -10.803223, 21.972656
1250942, 0.433350, 0.832275, -0.439819, 24.841316, -14.404301, 10.131836
1250962, 0.369019, 0.824341, -0.468018, 21.301270, -18.127441, -0.305176
1250982, 0.285278, 0.801392, -0.474365, 13.793949, -24.230965, -1.403809
1251002, 0.236816, 0.727539, -0.435913, -2.380371, -11.962894, 6.347658
1251022, 0.289551, 0.674194, -0.360962, -10.131836, 3.234864, 12.817387
1251042, 0.366577, 0.646362, -0.310547, -11.535648, 9.277344, 14.892582
1251062, 0.403564, 0.661377, -0.340698, -13.366703, 6.103518, 9.582520
1251082, 0.414429, 0.698120, -0.359131, -18.249512, 1.281738, 2.197266
1251102, 0.408081, 0.741211, -0.335449, -19.531250, -6.469728, -2.441406
1251122, 0.363525, 0.913818, -0.395020, -18.554688, -3.112794, -1.831055
1251142, 0.408325, 1.291626, -0.438965, -9.399414, 1.037598, 5.676271
1251162, 0.459717, 1.002563, -0.427612, 1.403809, 5.615236, 3.417970
1251182, 0.444092, 0.807983, -0.490112, -5.126953, -0.061035, -2.929688
1251202, 0.301758, 0.823853, -0.331543, -9.826660, -6.713869, -2.563477
1251222, 0.366211, 0.879639, -0.286377, -6.042482, -8.422852, 4.577637
1251242, 0.427490, 0.890503, -0.319092, 1.281738, -8.178711, 1.831055
1251262, 0.424438, 0.866699, -0.400269, 2.197266, -11.657719, -1.403809
1251282, 0.405518, 0.847412, -0.405518, -0.854492, -12.939457, -4.333496
1251302, 0.404297, 0.872070, -0.363770, -1.159668, -14.099125, -6.347658
1251322, 0.380981, 0.861206, -0.353149, 1.098633, -13.061527, -9.033203
1251342, 0.367554, 0.865723, -0.358154, 2.868653, -15.747074, -9.399414
1251362, 0.336914, 0.864868, -0.372314, 4.394531, -17.333984, -8.544922
1251382, 0.312622, 0.857788, -0.413818, 4.333496, -13.000492, -4.943848
1251402, 0.320313, 0.846680, -0.447876, 0.793457, -8.178711, -3.540040
1251422, 0.316284, 0.849976, -0.429199, -3.662110, -7.080080, -1.586915
1251442, 0.321777, 0.861206, -0.393433, -4.760742, -7.141115, 0.732422
1251462, 0.338989, 0.862427, -0.391113, -4.760742, -3.479005, 0.549316
1251482, 0.347168, 0.869629, -0.377441, -4.150391, -2.014160, 0.183106
1251502, 0.373413, 0.862793, -0.384399, -3.417970, -3.784181, -0.915528
1251522, 0.360962, 0.861938, -0.401001, -4.150391, -4.882813, -3.295899
1251542, 0.323975, 0.864990, -0.391235, -4.882813, -6.103518, -2.929688
1251562, 0.301758, 0.864014, -0.395508, -5.676271, -3.356935, -1.403809
1251582, 0.316162, 0.869629, -0.394165, -6.408693, 1.525879, 1.342773
1251602, 0.317627, 0.869629, -0.383545, -6.958010, 3.540040, 2.807618
1251622, 0.308105, 0.861694, -0.417114, -8.544922, 8.728027, 3.540040
1251642, 0.294800, 0.863281, -0.401855, -12.268070, 11.718754, 6.103518
1251662, 0.342896, 0.935059, -0.264282, -0.915528, 0.732422, 1.281738
1251682, 0.236328, 0.907227, -0.349243, 15.747074, 4.394531, -3.601075
1251702, 0.235229, 0.873413, -0.449097, 15.563969, 14.465336, -5.249023
1251722, 0.212402, 0.884033, -0.431885, 12.084965, 19.287109, -3.112794
1251742, 0.211670, 0.911621, -0.357300, 12.207035, 27.465828, 2.197266
1251762, 0.244263, 0.910767, -0.339600, 14.587406, 36.682129, -0.122070
1251782, 0.308350, 0.931274, -0.315796, 15.563969, 36.743164, -0.854492
1251802, 0.342041, 0.915161, -0.319214, 15.991215, 34.240723, -4.028320
1251822, 0.368286, 0.903809, -0.320923, 16.662598, 28.686531, -9.155273
1251842, 0.334717, 0.906372, -0.333496, 15.991215, 23.498543, -14.953617
1251862, 0.283447, 0.893677, -0.282715, 18.432617, 21.423340, -12.329105
1251882, 0.284668, 0.904053, -0.358276, 16.235352, 31.738289, -10.620117
1251902, 0.366699, 0.908936, -0.310425, 12.695316, 36.437988, -8.117676
1251922, 0.399048, 0.892212, -0.336548, 9.948730, 37.963867, -15.075687
1251942, 0.444458, 0.912598, -0.282593, 10.742188, 31.005867, -19.348145
1251962, 0.391724, 0.867310, -0.287842, 17.883301, 23.864754, -29.968269
1251982, 0.347046, 0.868774, -0.292969, 19.775391, 21.606445, -20.141602
1252002, 0.342407, 0.881836, -0.316895, 21.423340, 20.141602, -15.380863
1252022, 0.366211, 0.863770, -0.365479, 19.958496, 20.202637, -14.587406
1252042, 0.420776, 0.877319, -0.397217, 15.808109, 20.996094, -19.531250
1252062, 0.458252, 0.848145, -0.363770, 12.390141, 17.822266, -27.648933
1252082, 0.477295, 0.860352, -0.361206, 13.793949, 9.277344, -32.104492
1252102, 0.445068, 0.844849, -0.429932, 7.324221, 3.295899, -37.963867
1252122, 0.398560, 0.840820, -0.391357, 0.244141, -1.953125, -40.039063
1252142, 0.349854, 0.845825, -0.378052, -2.441406, 6.774904, -42.785645
1252162, 0.349243, 0.851318, -0.360229, -0.854492, 10.864258, -41.076660
1252182, 0.339966, 0.888428, -0.373169, -0.427246, 9.277344, -32.653809
1252202, 0.376587, 0.853394, -0.459229, -12.390141, 11.596684, -31.188972
1252222, 0.395386, 0.879395, -0.421143, -26.672371, 15.930180, -33.508301
1252242, 0.432983, 0.894043, -0.309326, -28.747566, 7.568361, -36.437988
1252262, 0.455811, 0.867188, -0.341553, -29.602058, -3.601075, -38.208008
1252282, 0.440063, 0.850464, -0.381470, -31.738289, -21.179199, -34.057617
1252302, 0.410156, 0.870117, -0.333374, -32.775879, -39.428711, -29.235847
1252322, 0.405640, 0.878784, -0.337036, -30.212410, -58.654800, -28.015144
1252342, 0.288208, 0.883545, -0.401855, -23.620613, -60.424820, -28.930672
1252362, 0.122559, 0.725708, -0.445801, -31.738289, -49.682632, -17.456055
1252382, 0.043457, 0.897339, -0.454102, -47.668472, -33.874512, 15.075687
1252402, 0.144165, 0.997192, -0.218872, -35.217285, -27.038582, 32.592773
1252422, 0.210205, 0.931885, -0.288330, -17.700195, -33.386230, 42.663574
1252442, 0.300781, 0.921387, -0.388794, -12.451176, -33.935547, 39.855957
1252462, 0.269409, 0.912842, -0.370483, -5.798342, -41.931152, 30.822762
1252482, 0.184082, 0.922729, -0.399658, -0.183106, -54.443375, 27.465828
1252502, 0.102051, 0.909668, -0.406006, 2.624512, -47.790543, 24.292000
1252522, 0.042969, 0.931030, -0.466309, -1.770020, -28.625496, 7.751467
1252542, -0.008911, 0.930664, -0.441040, -1.403809, -15.197758, 7.202150
1252562, -0.010498, 0.947266, -0.408447, 3.112794, -8.972168, 13.793949
1252582, -0.028442, 0.937988, -0.409424, 7.202150, -4.577637, 19.897461
1252602, -0.013184, 0.948242, -0.388306, 9.582520, 2.624512, 23.559578
1252622, 0.003174, 0.947021, -0.383179, 11.840824, 14.465336, 22.460945
1252642, 0.046021, 0.968140, -0.357544, 13.854984, 22.338875, 18.127441
1252662, 0.047363, 0.969727, -0.338989, 18.920898, 24.292000, 13.977055
1252682, 0.072388, 0.964355, -0.335327, 21.057129, 23.986824, 11.840824
1252702, 0.106567, 0.972046, -0.298950, 15.258793, 32.470703, 4.089355
1252722, 0.132080, 0.993286, -0.214600, 10.864258, 36.926270, 1.037598
1252742, 0.120850, 1.018921, -0.145264, 15.747074, 39.184570, -0.061035
1252762, 0.161377, 0.989624, -0.140259, 18.859863, 45.288101, -0.793457
1252782, 0.215454, 0.999146, -0.111938, 20.141602, 44.189453, -1.037598
1252802, 0.213379, 0.989746, -0.117432, 20.935059, 45.166031, 1.342773
1252822, 0.241943, 0.955688, -0.123047, 16.845703, 45.043961, 10.864258
1252842, 0.332764, 0.956421, -0.107422, 15.930180, 40.283203, 17.089844
1252862, 0.398193, 0.928345, -0.121582, 19.104004, 36.865234, 19.714355
1252882, 0.490601, 0.920044, -0.169922, 24.108894, 28.930672, 14.404301
1252902, 0.556519, 0.854980, -0.265991, 32.409668, 10.375977, 0.915528
1252922, 0.565552, 0.831787, -0.313354, 34.362793, -6.408693, -3.967286
1252942, 0.465576, 0.808838, -0.397339, 34.912109, -16.418457, -1.831055
1252962, 0.401978, 0.762939, -0.527588, 27.343758, -14.648441, 1.037598
1252982, 0.379272, 0.798584, -0.510010, 22.583015, -8.605957, 9.948730
1253002, 0.463257, 0.775391, -0.651245, 9.948730, -0.854492, 6.408693
1253022, 0.531128, 0.802368, -0.618408, -11.413578, -6.225588, -7.568361
1253042, 0.441895, 0.846924, -0.481567, -23.803719, -16.601563, -19.897461
1253062, 0.298340, 0.875610, -0.370972, -26.123055, -21.057129, -22.460945
1253082, 0.196899, 0.905273, -0.273315, -17.211914, -8.361816, -14.770512
1253102, 0.195923, 0.920044, -0.271606, -8.178711, -0.915528, -7.141115
1253122, 0.237061, 0.920410, -0.279907, 0.122070, 2.929688, -2.075195
1253142, 0.270264, 0.910889, -0.307739, 6.896975, 3.906251, 0.366211
1253162, 0.296753, 0.893311, -0.361206, 10.192871, 4.089355, 0.854492
1253182, 0.318481, 0.883057, -0.395020, 9.216309, 2.502441, -0.427246
1253202, 0.315674, 0.882813, -0.390381, 8.300781, 0.061035, -2.075195
1253222, 0.312988, 0.875854, -0.431396, 5.737307, -1.953125, -3.540040
1253242, 0.282593, 0.874756, -0.412476, 1.586915, -1.708985, -4.638672
1253262, 0.265747, 0.888184, -0.391846, 1.037598, -1.708985, -2.746582
1253282, 0.245605, 0.890747, -0.352051, 1.342773, 1.464844, -0.549316
1253302, 0.249634, 0.889771, -0.376465, 4.394531, 3.479005, 3.112794
1253322, 0.294800, 0.875854, -0.422607, 2.197266, 4.760742, 3.967286
1253342, 0.312622, 0.878052, -0.406494, -0.183106, 1.098633, 3.234864
1253362, 0.296631, 0.883057, -0.400879, -1.403809, -0.366211, 2.685547
1253382, 0.319702, 0.877441, -0.411987, -3.112794, -1.892090, 1.953125
1253402, 0.327026, 0.873901, -0.419678, -6.042482, -5.310059, -0.183106
1253422, 0.316162, 0.877197, -0.409302, -8.911133, -11.657719, -0.976563
1253442, 0.295654, 0.882813, -0.398560, -10.742188, -14.831547, -1.342773
1253462, 0.244019, 0.890869, -0.345337, -10.498047, -13.305668, 0.671387
1253482, 0.225464, 0.906128, -0.321655, -6.713869, -7.385256, 3.906251
1253502, 0.248657, 0.908203, -0.324463, -2.136230, -0.305176, 6.652834
1253522, 0.296509, 0.894043, -0.346802, 0.854492, 3.234864, 7.019045
1253542, 0.337158, 0.891846, -0.359009, 2.075195, 2.014160, 4.455566
1253562, 0.339844, 0.894897, -0.362061, 3.173829, -1.159668, 1.281738
1253582, 0.323853, 0.881714, -0.374023, 3.356935, -1.586915, -2.197266
