timestamp,ax,ay,az,gx,gy,gz
1263582, 0.293457, 0.914063, -0.332397, 0.610352, 0.061035, 0.366211
1263602, 0.296509, 0.900269, -0.327271, 1.281738, -0.305176, 0.427246
1263622, 0.288696, 0.899902, -0.337769, 1.403809, 1.281738, 0.915528
1263642, 0.297119, 0.899780, -0.341675, 0.976563, 3.112794, 0.976563
1263662, 0.310669, 0.903198, -0.333984, 0.854492, 1.770020, 0.915528
1263682, 0.309570, 0.899048, -0.338867, 0.793457, 0.061035, 0.488281
1263702, 0.295898, 0.900635, -0.340576, 0.366211, -0.183106, 0.854492
1263722, 0.310059, 0.900024, -0.336182, 0.122070, 0.183106, 1.098633
1263742, 0.318481, 0.900635, -0.334839, 0.122070, -0.854492, -0.183106
1263762, 0.303711, 0.899780, -0.332397, 0.427246, -1.647950, -0.549316
1263782, 0.294434, 0.902100, -0.331665, 0.671387, -1.708985, -0.366211
1263802, 0.287231, 0.903809, -0.324219, 1.647950, -1.342773, 0.732422
1263822, 0.296509, 0.897217, -0.350220, 1.708985, -0.793457, 1.464844
1263842, 0.304688, 0.895508, -0.349243, 0.244141, -0.854492, 1.586915
1263862, 0.313843, 0.897217, -0.342896, -0.183106, -1.647950, 1.037598
1263882, 0.300415, 0.896240, -0.348999, -1.159668, -1.342773, 0.671387
1263902, 0.304077, 0.901489, -0.330200, -1.647950, -0.610352, 1.342773
1263922, 0.316406, 0.906006, -0.315430, -0.366211, -1.892090, 0.854492
1263942, 0.301636, 0.903809, -0.320190, 1.159668, -2.563477, 0.610352
1263962, 0.280640, 0.904419, -0.321167, 2.624512, -1.647950, 1.708985
1263982, 0.287842, 0.895996, -0.349121, 2.685547, 0.244141, 3.295899
1264002, 0.319336, 0.893799, -0.350220, 1.464844, -0.061035, 3.479005
1264022, 0.319824, 0.894531, -0.348022, 0.427246, -1.647950, 2.502441
1264042, 0.302490, 0.895630, -0.342896, -0.183106, -1.953125, 2.441406
1264062, 0.296387, 0.898926, -0.333496, -0.061035, -1.281738, 3.234864
1264082, 0.313721, 0.899780, -0.328003, 1.037598, -0.549316, 3.906251
1264102, 0.297485, 0.901611, -0.337891, 1.708985, -1.342773, 4.455566
1264122, 0.252441, 0.897827, -0.360962, 0.793457, 0.427246, 7.324221
1264142, 0.162964, 0.905029, -0.363281, -0.671387, 6.469728, 15.869144
1264162, 0.178345, 0.912231, -0.305542, -0.732422, 21.362305, 27.526863
1264182, 0.284058, 0.978394, -0.213257, 7.568361, 33.142090, 33.874512
1264202, 0.411377, 1.117432, -0.140625, 35.461426, 8.972168, 22.460945
1264222, 0.396118, 1.298706, -0.297607, 70.556641, -9.399414, 17.089844
1264242, 0.358765, 1.052246, -0.506348, 89.599640, -21.301270, 10.681152
1264262, 0.267944, 0.784424, -0.761963, 83.496094, -13.977055, -6.774904
1264282, 0.153320, 0.632202, -0.880249, 37.780762, -2.807618, -30.700691
1264302, 0.108887, 0.562744, -0.621460, 13.793949, 6.469728, -28.564461
1264322, 0.170410, 0.527588, -0.430054, 6.896975, 23.925789, -25.817879
1264342, 0.292236, 0.525879, -0.397461, 0.854492, 30.151375, -25.634773
1264362, 0.336548, 0.603882, -0.349365, -5.737307, 38.818359, -26.733406
1264382, 0.337646, 0.673218, -0.292358, -8.911133, 36.804199, -13.793949
1264402, 0.379150, 0.749390, -0.292725, -10.681152, 20.568848, 2.441406
1264422, 0.368408, 0.885254, -0.357666, -16.174316, 33.081055, 17.395020
1264442, 0.354736, 1.060913, -0.389404, -26.123055, 45.471207, 47.607437
1264462, 0.590454, 1.062378, -0.208008, -13.244633, 54.626480, 70.312500
1264482, 0.791870, 0.942383, -0.155029, 10.864258, 42.297363, 50.476089
1264502, 0.873413, 0.813110, -0.240845, 26.428230, 10.192871, 17.028809
1264522, 0.729370, 0.683716, -0.366089, 26.611336, -32.287598, -10.681152
1264542, 0.446899, 0.627441, -0.492798, 11.413578, -64.208984, -22.338875
1264562, 0.207642, 0.663696, -0.543091, -16.052246, -52.612320, -19.592285
1264582, 0.163330, 0.966064, -0.469482, -33.264160, -5.249023, -3.601075
1264602, 0.311646, 1.029663, -0.301880, -25.268562, 26.611336, 8.728027
1264622, 0.419312, 0.888794, -0.254639, -7.812502, 34.301758, 13.793949
1264642, 0.511963, 0.817749, -0.356567, -1.220703, 28.747566, 8.117676
1264662, 0.499512, 0.826416, -0.377686, -9.338379, 6.591799, 0.244141
1264682, 0.474365, 0.858032, -0.310669, -5.371094, -10.314941, -0.671387
1264702, 0.479858, 0.844238, -0.374756, -1.953125, -13.366703, -3.479005
1264722, 0.498291, 0.822754, -0.423584, -4.150391, -9.521484, -9.765625
1264742, 0.477905, 0.827393, -0.437256, -8.972168, -11.840824, -15.197758
1264762, 0.441040, 0.824829, -0.432373, -14.099125, -17.883301, -17.700195
1264782, 0.359619, 0.837891, -0.404541, -18.066406, -19.836426, -16.601563
1264802, 0.290649, 0.848389, -0.379639, -19.531250, -12.634281, -11.413578
1264822, 0.294189, 0.858643, -0.365112, -19.531250, -1.464844, -4.577637
1264842, 0.377197, 0.855957, -0.368042, -21.179199, 8.117676, -0.915528
1264862, 0.385742, 0.856201, -0.344360, -21.850586, 9.582520, -0.488281
1264882, 0.383423, 0.870117, -0.309204, -21.057129, 11.169437, -0.671387
1264902, 0.406494, 0.879761, -0.273193, -17.333984, 6.225588, 0.854492
1264922, 0.435059, 0.880371, -0.277588, -13.549809, 0.793457, -0.793457
1264942, 0.450928, 0.884033, -0.265625, -9.643555, -7.202150, -3.295899
1264962, 0.430054, 0.896606, -0.216797, 0.305176, -21.667480, -6.225588
1264982, 0.334839, 0.878662, -0.294434, 8.789063, -22.949226, -5.432129
1265002, 0.312256, 0.856812, -0.390503, 3.662110, -14.160160, -1.281738
1265022, 0.319702, 0.869995, -0.350708, -1.159668, -6.103518, 3.173829
1265042, 0.364746, 0.868530, -0.329834, 2.258301, -2.746582, 6.347658
1265062, 0.368286, 0.865479, -0.340210, 1.831055, 0.183106, 6.408693
1265082, 0.374023, 0.859375, -0.353394, -1.525879, 1.586915, 7.995607
1265102, 0.396606, 0.866821, -0.329956, -2.502441, 2.075195, 7.690432
1265122, 0.401245, 0.875122, -0.327026, -0.732422, 2.319336, 5.859377
1265142, 0.391357, 0.871704, -0.321045, 1.953125, 5.371094, 3.845216
1265162, 0.428833, 0.862671, -0.346436, 2.868653, 4.394531, 1.525879
1265182, 0.421387, 0.868652, -0.355835, 4.333496, -1.403809, -2.868653
1265202, 0.355469, 0.867310, -0.358765, 5.615236, -0.549316, -4.455566
1265222, 0.337646, 0.873901, -0.369995, 4.333496, 7.324221, -3.967286
1265242, 0.337524, 0.894653, -0.346802, 8.178711, 9.094238, -4.760742
1265262, 0.321045, 0.884644, -0.346802, 11.779789, 12.146000, -6.896975
1265282, 0.302368, 0.861206, -0.366211, 10.437012, 17.517090, -5.737307
1265302, 0.373169, 0.895020, -0.317139, 11.047363, 18.432617, -2.563477
1265322, 0.399170, 0.908081, -0.338257, 16.845703, 14.038090, -11.230473
1265342, 0.366699, 0.882202, -0.342896, 14.770512, 12.023930, -16.967773
1265362, 0.308228, 0.892456, -0.309570, 11.108402, 11.169437, -15.197758
1265382, 0.303589, 0.904663, -0.257446, 14.099125, 17.517090, -10.986328
1265402, 0.360107, 0.899170, -0.267700, 20.629883, 17.944336, -12.268070
1265422, 0.397949, 0.881104, -0.300903, 19.104004, 13.183598, -14.160160
1265442, 0.345825, 0.877563, -0.323608, 11.230473, 7.873537, -9.338379
1265462, 0.347534, 0.901367, -0.231812, 14.526371, 9.277344, -6.774904
1265482, 0.394775, 0.932617, -0.300049, 21.789551, 6.225588, -15.441898
1265502, 0.382690, 0.913696, -0.370117, 22.521980, 0.854492, -24.597176
1265522, 0.365356, 0.902344, -0.414307, 17.578125, -8.422852, -31.982430
1265542, 0.240356, 0.857788, -0.401123, 11.779789, -7.934572, -30.090340
1265562, 0.164917, 0.863525, -0.319214, 9.704590, 7.019045, -11.291508
1265582, 0.313965, 0.880005, -0.343140, 10.803223, 20.019531, -3.723145
1265602, 0.416626, 0.875977, -0.337891, 11.596684, 18.127441, -11.840824
1265622, 0.407104, 0.881104, -0.343018, 10.559082, 12.023930, -15.380863
1265642, 0.418091, 0.872559, -0.358154, 8.850098, 5.065918, -24.230965
1265662, 0.364502, 0.824341, -0.405029, 3.540040, 2.502441, -29.968269
1265682, 0.360352, 0.864014, -0.412231, -5.310059, -4.699707, -41.198730
1265702, 0.301392, 0.883301, -0.305786, -4.577637, -3.417970, -31.372078
1265722, 0.325195, 0.873657, -0.327393, -1.831055, 1.281738, -22.827156
1265742, 0.342163, 0.903809, -0.348633, -2.807618, 5.249023, -17.944336
1265762, 0.384277, 0.904663, -0.354736, -4.516602, 6.958010, -19.226074
1265782, 0.406250, 0.894897, -0.347656, -5.798342, 5.615236, -18.676758
1265802, 0.446045, 0.895508, -0.333496, -8.972168, -4.089355, -23.132332
1265822, 0.395630, 0.896240, -0.313477, -7.751467, -14.587406, -22.583015
1265842, 0.406494, 0.896729, -0.321899, -7.385256, -23.864754, -22.155769
1265862, 0.378052, 0.895020, -0.400879, -10.620117, -27.954109, -23.864754
1265882, 0.342407, 0.893066, -0.381348, -17.944336, -32.775879, -23.742683
1265902, 0.298584, 0.889160, -0.347046, -16.723633, -38.818359, -23.315437
1265922, 0.257202, 0.848755, -0.406860, -17.211914, -35.888672, -19.531250
1265942, 0.254883, 0.862549, -0.423218, -23.803719, -32.897949, -13.244633
1265962, 0.224854, 0.884277, -0.383545, -23.193367, -32.836914, -7.080080
1265982, 0.245239, 0.887695, -0.373291, -25.024422, -32.287598, 7.080080
1266002, 0.259155, 0.894287, -0.353760, -16.357422, -35.949707, 12.084965
1266022, 0.218018, 0.806396, -0.416992, -14.770512, -34.240723, 18.615723
1266042, 0.183228, 0.811279, -0.507568, -27.404793, -21.240234, 29.602058
1266062, 0.320313, 0.975098, -0.391602, -27.709969, -20.080566, 25.207527
1266082, 0.257813, 0.914063, -0.367432, -12.878422, -33.996582, 19.531250
1266102, 0.240479, 0.907104, -0.472412, -8.850098, -40.283203, 18.798828
1266122, 0.193970, 0.880737, -0.457520, -7.507326, -46.936050, 16.418457
1266142, 0.145996, 0.912109, -0.455688, -10.437012, -41.259766, 13.427738
1266162, 0.118774, 0.906860, -0.458130, -11.962894, -25.695808, 3.601075
1266182, 0.091797, 0.915771, -0.408936, -10.375977, -9.460449, -1.708985
1266202, 0.040649, 0.911621, -0.393433, -6.286623, -5.126953, 8.300781
1266222, 0.009888, 0.921387, -0.360718, -1.159668, 5.187988, 19.531250
1266242, 0.023926, 0.942871, -0.342285, 4.089355, 15.869144, 23.376472
1266262, 0.092651, 0.954956, -0.384277, 5.065918, 26.123055, 16.845703
1266282, 0.129150, 0.967285, -0.343750, 5.004883, 24.475105, 8.605957
1266302, 0.086426, 0.980591, -0.294189, 11.657719, 16.113281, 7.934572
1266322, 0.072876, 0.964111, -0.301636, 14.526371, 14.404301, 7.385256
1266342, 0.079468, 0.971313, -0.274902, 15.014652, 13.671879, 7.507326
1266362, 0.105225, 0.992432, -0.225830, 13.244633, 16.357422, 3.234864
1266382, 0.081055, 0.991333, -0.209839, 16.174316, 18.432617, 1.647950
1266402, 0.127441, 1.001099, -0.201782, 14.160160, 22.460945, 3.845216
1266422, 0.133301, 0.995483, -0.153931, 15.258793, 24.230965, 5.615236
1266442, 0.187988, 0.996826, -0.131348, 19.592285, 20.141602, 6.652834
1266462, 0.234009, 0.981445, -0.149048, 24.169930, 22.705086, 3.479005
1266482, 0.280396, 0.959595, -0.217285, 25.451668, 22.583015, -0.793457
1266502, 0.295532, 0.922729, -0.246216, 21.606445, 30.456551, 2.258301
1266522, 0.364258, 0.924805, -0.203857, 21.850586, 29.052742, 5.859377
1266542, 0.426758, 0.923950, -0.218140, 27.893074, 17.150879, 1.892090
1266562, 0.389771, 0.882690, -0.327026, 28.808601, 4.089355, -3.479005
1266582, 0.357422, 0.857910, -0.363403, 26.367195, 0.610352, -0.976563
1266602, 0.326172, 0.820679, -0.391113, 24.353035, 6.286623, 8.239746
1266622, 0.361450, 0.821411, -0.440918, 21.484375, 10.925293, 17.150879
1266642, 0.401245, 0.807495, -0.487183, 16.967773, 17.150879, 19.470215
1266662, 0.438843, 0.802612, -0.505005, 12.634281, 16.723633, 18.371582
1266682, 0.495361, 0.810791, -0.577759, 3.234864, 13.000492, 9.399414
1266702, 0.509888, 0.824829, -0.551025, -12.878422, 5.249023, -5.676271
1266722, 0.431030, 0.861450, -0.419922, -19.348145, -6.286623, -15.441898
1266742, 0.286499, 0.890259, -0.343140, -16.479492, -16.845703, -18.249512
1266762, 0.235107, 0.894897, -0.331177, -12.451176, -14.526371, -14.404301
1266782, 0.212036, 0.901001, -0.323120, -7.934572, -9.704590, -9.948730
1266802, 0.177002, 0.908569, -0.310791, -2.258301, -2.807618, -3.112794
1266822, 0.192505, 0.904053, -0.330444, 3.051759, 3.540040, 4.577637
1266842, 0.232788, 0.895020, -0.351563, 6.103518, 6.591799, 10.314941
1266862, 0.282471, 0.887207, -0.366211, 7.812502, 6.652834, 13.183598
1266882, 0.339233, 0.878784, -0.386475, 8.483887, 4.211426, 12.878422
1266902, 0.361694, 0.872681, -0.400391, 7.141115, 1.831055, 8.666992
1266922, 0.354370, 0.870117, -0.411743, 5.981447, 0.305176, 5.065918
1266942, 0.360962, 0.866821, -0.418457, 0.793457, 0.915528, -0.732422
1266962, 0.373047, 0.877197, -0.377075, 0.488281, -2.258301, -5.310059
1266982, 0.325684, 0.877930, -0.378906, 1.892090, -2.746582, -8.789063
1267002, 0.289673, 0.876831, -0.390015, 2.014160, 0.488281, -9.277344
1267022, 0.273071, 0.880005, -0.390259, 2.197266, 5.126953, -8.361816
1267042, 0.268677, 0.878052, -0.395142, 2.014160, 6.713869, -5.981447
1267062, 0.274658, 0.880493, -0.395020, 1.464844, 5.676271, -3.356935
1267082, 0.254028, 0.886475, -0.362549, 2.502441, 6.530764, -0.549316
1267102, 0.270508, 0.886230, -0.365845, 5.310059, 10.314941, 2.197266
1267122, 0.329956, 0.873291, -0.409180, 5.676271, 8.544922, 2.441406
1267142, 0.353638, 0.869385, -0.414307, 3.601075, 2.075195, 0.793457
1267162, 0.346680, 0.871582, -0.404785, 2.197266, -1.708985, -2.258301
1267182, 0.315063, 0.873291, -0.404175, 1.220703, -2.136230, -4.211426
1267202, 0.295410, 0.876221, -0.400024, 0.671387, -2.319336, -3.906251
1267222, 0.289429, 0.873779, -0.401245, 0.061035, -2.685547, -2.868653
1267242, 0.294678, 0.874268, -0.398926, -0.366211, -2.197266, -2.075195
1267262, 0.294922, 0.869995, -0.420044, -1.892090, -1.342773, -2.075195
1267282, 0.291870, 0.880615, -0.389038, -3.112794, -0.793457, -1.342773
1267302, 0.316528, 0.882324, -0.383423, -1.892090, -1.770020, -1.525879
1267322, 0.293823, 0.876465, -0.402222, -2.563477, -2.197266, -3.234864
1267342, 0.279053, 0.883911, -0.385498, -2.868653, -3.295899, -1.770020
