timestamp,ax,ay,az,gx,gy,gz
2939061, 0.508423, 0.839722, -0.287109, 3.723145, -6.408693, -2.319336
2939081, 0.492554, 0.841187, -0.311035, 5.676271, -9.582520, -4.882813
2939121, 0.443970, 0.832275, -0.351196, 3.112794, -12.329105, -7.019045
2939181, 0.437500, 0.831177, -0.366211, -2.685547, 1.220703, 3.479005
2939201, 0.461304, 0.835815, -0.335205, -4.333496, -0.366211, 2.624512
2939221, 0.500366, 0.842041, -0.300659, -1.342773, 0.122070, -0.671387
2939241, 0.448486, 0.845947, -0.298340, 1.403809, -1.953125, -3.051759
2939261, 0.403076, 0.843384, -0.331177, 2.929688, -1.586915, -0.122070
2939281, 0.423706, 0.832886, -0.361328, 1.708985, 0.122070, 2.075195
2939301, 0.474976, 0.826538, -0.362915, -1.159668, 0.305176, 1.831055
2939321, 0.474243, 0.838989, -0.322998, -1.953125, -2.075195, -0.183106
2939341, 0.446411, 0.843018, -0.308716, -0.366211, -3.540040, -0.854492
2939361, 0.432251, 0.842163, -0.319824, 1.220703, -2.502441, -0.183106
2939381, 0.440918, 0.838379, -0.334229, 1.953125, -0.488281, 0.488281
2939401, 0.478394, 0.833984, -0.339478, 1.281738, -1.525879, -0.671387
2939421, 0.440308, 0.833374, -0.348389, 0.305176, -6.286623, -2.258301
2939441, 0.427124, 0.837280, -0.341919, -1.037598, -5.432129, -1.403809
2939501, 0.458252, 0.835327, -0.337524, 1.708985, 0.549316, 1.464844
2939521, 0.481079, 0.834473, -0.340454, 0.793457, -2.685547, -0.305176
2939541, 0.456055, 0.840698, -0.323242, 1.342773, -5.004883, -1.525879
2939561, 0.426392, 0.840088, -0.339355, 1.953125, -5.249023, -1.464844
2939581, 0.399536, 0.834351, -0.360718, 1.281738, -1.403809, 0.671387
2939601, 0.455078, 0.836914, -0.338013, -0.854492, 1.159668, 1.220703
2939621, 0.498535, 0.835693, -0.326172, -0.183106, -0.427246, -0.976563
2939641, 0.460815, 0.838379, -0.337280, 0.183106, -4.699707, -4.028320
2939681, 0.415161, 0.841919, -0.332520, -0.427246, -3.173829, 1.159668
2939721, 0.473267, 0.837402, -0.333496, 0.671387, 0.793457, -0.183106
2939761, 0.421265, 0.842896, -0.331299, 1.708985, -1.220703, -2.014160
2939781, 0.418213, 0.842529, -0.337036, 2.136230, -3.112794, -0.122070
2939801, 0.436035, 0.831665, -0.368896, -0.122070, -0.610352, 1.953125
2939821, 0.466553, 0.834839, -0.347778, -1.464844, -0.610352, 0.732422
2939841, 0.461914, 0.840942, -0.328735, -1.098633, -1.098633, -0.915528
2939901, 0.432861, 0.834839, -0.356445, -0.122070, -2.075195, -0.915528
2939941, 0.433350, 0.843140, -0.329224, -1.586915, -0.183106, 0.854492
2939961, 0.450439, 0.847168, -0.312988, 0.183106, -1.831055, 0.732422
2939981, 0.459351, 0.837891, -0.342773, 1.831055, -2.929688, -1.281738
2940001, 0.431763, 0.835938, -0.355591, 0.976563, -2.563477, -1.464844
2940021, 0.427612, 0.840820, -0.346313, -0.061035, -2.319336, -0.732422
2940041, 0.442017, 0.838989, -0.345093, -0.183106, -2.502441, -0.305176
2940061, 0.452759, 0.841064, -0.336426, -0.061035, -2.624512, -1.342773
2940081, 0.443481, 0.844482, -0.326172, 0.549316, -4.394531, -2.563477
2940101, 0.408813, 0.843262, -0.341187, 1.953125, -1.464844, -1.708985
2940121, 0.398804, 0.838501, -0.365479, 0.793457, 0.183106, 1.037598
2940141, 0.456299, 0.834595, -0.355591, -0.976563, 0.732422, 1.525879
2940161, 0.481079, 0.839722, -0.330688, -1.037598, -1.892090, -0.793457
2940181, 0.411621, 0.844604, -0.343140, 0.366211, -3.417970, -2.441406
2940261, 0.443359, 0.838745, -0.348755, 0.427246, -0.366211, -0.549316
2940281, 0.445190, 0.838989, -0.347046, 0.244141, -1.647950, -0.915528
2940301, 0.441162, 0.840698, -0.348999, -0.671387, -2.868653, -2.014160
2940321, 0.429932, 0.841919, -0.347290, -0.488281, -3.112794, -1.770020
2940341, 0.405029, 0.845947, -0.335571, -0.732422, -2.685547, -0.854492
2940361, 0.423462, 0.845337, -0.332886, 0.122070, -1.037598, 0.671387
2940381, 0.418091, 0.846191, -0.331177, 1.464844, -0.976563, 1.586915
2940401, 0.429810, 0.838379, -0.358521, 1.281738, -0.732422, 2.319336
2940421, 0.449829, 0.834717, -0.364258, -0.244141, 0.183106, 1.464844
2940441, 0.453247, 0.839111, -0.349609, -1.770020, -0.244141, -0.305176
2940461, 0.459717, 0.846680, -0.316406, -0.671387, -1.464844, -2.014160
2940481, 0.425659, 0.846436, -0.331665, 1.525879, -2.990724, -2.502441
2940501, 0.431274, 0.838745, -0.362061, 0.610352, -3.845216, -1.892090
2940521, 0.435181, 0.840942, -0.354370, -0.732422, -3.295899, -2.075195
2940541, 0.427856, 0.847656, -0.327271, -0.366211, -4.821777, -2.197266
2940561, 0.411621, 0.843384, -0.351929, 0.488281, -4.943848, -1.831055
2940621, 0.456665, 0.847168, -0.325073, -0.793457, -2.258301, 1.098633
2940641, 0.473145, 0.844727, -0.326172, 0.976563, -6.225588, -0.976563
2940661, 0.423096, 0.843994, -0.354614, 1.159668, -6.958010, -3.051759
2940681, 0.386475, 0.840820, -0.376953, -0.610352, -3.479005, -1.647950
2940701, 0.392456, 0.845581, -0.358398, -2.075195, 0.000000, 0.976563
2940721, 0.428467, 0.849121, -0.328247, -1.892090, 0.488281, 1.770020
2940741, 0.464355, 0.850220, -0.322266, 1.770020, -3.662110, -0.671387
2940761, 0.449829, 0.842407, -0.343506, 2.624512, -5.432129, -2.563477
2940781, 0.458496, 0.845093, -0.363770, 2.014160, -8.544922, -4.333496
2940801, 0.410156, 0.860840, -0.362671, 0.305176, -14.709476, -4.943848
2940821, 0.242432, 0.916016, -0.364746, 2.075195, -5.004883, 1.953125
2940841, 0.244507, 1.189209, -0.532593, -20.874023, 36.499023, 15.014652
2940861, -0.054810, 1.401001, -0.411377, 18.859863, -19.042969, 59.997574
2940881, -0.082275, 0.812500, -0.646851, 42.541504, 30.639656, 70.312500
2940901, 0.178223, 0.651123, -0.716797, 52.490250, 103.637726, 28.930672
2940921, 0.408081, 0.813965, -0.629028, 54.992691, 145.202637, -17.150879
2940941, 0.560547, 0.720093, -0.641968, 83.007813, 97.778351, -51.757828
2940961, 0.470703, 0.606323, -0.625732, 59.326187, 60.058609, -65.429688
2941001, 0.379517, 0.607422, -0.187378, 51.757828, 74.951172, -81.909180
2941021, 0.507813, 0.571533, -0.043457, 47.302261, 78.979492, -77.453613
2941041, 0.697021, 0.584229, 0.032959, 27.404793, 67.687988, -76.416016
2941061, 0.731323, 0.792358, 0.166016, 15.075687, 30.700691, -65.551758
2941081, 0.657715, 0.810913, 0.095581, 14.770512, -10.498047, -47.546402
2941101, 0.511719, 0.638550, -0.371582, -17.761230, -12.084965, -44.860855
2941121, 0.605835, 1.062988, 0.062134, -2.685547, 1.464844, 24.658211
2941141, 0.738770, 0.769897, -0.246094, -6.469728, -1.342773, -16.906738
2941161, 0.364136, 0.885254, -0.176025, 13.854984, -20.446777, -16.174316
2941181, 0.442505, 0.875610, -0.423584, 14.465336, -42.297363, -17.211914
2941201, 0.338623, 0.854248, -0.466431, 7.751467, -29.235847, -18.554688
2941221, 0.310181, 0.865967, -0.368286, 5.371094, -22.033691, -17.456055
2941241, 0.264771, 0.866211, -0.377075, 7.507326, -21.179199, -12.268070
2941261, 0.211060, 0.885498, -0.449829, 5.004883, -14.831547, -4.150391
2941281, 0.196777, 0.828247, -0.469849, 0.366211, 0.732422, 5.126953
2941301, 0.233276, 0.880493, -0.384033, -3.906251, 10.803223, 12.756351
2941321, 0.357910, 0.834717, -0.423096, -2.990724, 26.062019, 17.028809
2941341, 0.393799, 0.866699, -0.395752, -5.981447, 22.094727, 16.235352
2941361, 0.435059, 0.860107, -0.327881, -4.333496, 23.315437, 12.573246
2941381, 0.475464, 0.873291, -0.282959, 1.342773, 21.301270, 5.493164
2941421, 0.471558, 0.874512, -0.324097, 14.953617, 12.084965, -7.080080
2941441, 0.455444, 0.865356, -0.346680, 17.944336, 6.896975, -13.366703
2941461, 0.390015, 0.869995, -0.381592, 20.751953, 11.596684, -17.456055
2941481, 0.315796, 0.846802, -0.396851, 22.705086, 20.385742, -12.390141
2941501, 0.375610, 0.937256, -0.474365, 27.709969, 38.696289, -9.887695
2941521, 0.199707, 0.776855, -0.259521, 47.424332, 120.788605, 0.488281
2941541, 0.164429, 0.814331, -0.323120, 53.405777, 157.836914, 24.780281
2941561, 0.130737, 0.709961, -0.403809, 25.756844, 209.960999, 68.481445
2941601, 0.320923, 0.775269, -0.297363, -45.715347, 221.496643, 156.127930
2941641, 0.787476, 0.497192, 0.005127, -35.034180, 253.540100, 122.924835
2941661, 1.160400, 0.541992, -0.035400, -18.066406, 248.230042, 69.885254
2941681, 1.589233, 0.519897, -0.065918, -20.935059, 118.103058, -8.728027
2941701, 0.764893, 0.739868, 0.143921, 1.708985, 15.258793, -65.124512
2941721, 0.578125, 0.947266, -0.017456, 14.709476, -16.967773, -18.249512
2941741, 0.609985, 0.878296, 0.100464, 48.034683, -48.522964, 14.770512
2941761, 0.656982, 0.746338, 0.039307, 60.607925, -63.842789, 5.004883
2941781, 0.695557, 0.611084, -0.266235, 36.010742, -18.371582, -17.517090
2941801, 0.571655, 0.572021, -0.313477, -9.643555, 30.456551, -23.803719
2941821, 0.581055, 0.749268, -0.164673, -28.076180, 42.236328, -11.169437
2941841, 0.621094, 0.791138, -0.082886, -33.142090, 39.428711, 17.761230
2941861, 0.671631, 0.661377, -0.026245, -42.785645, 28.320320, 27.771004
2941881, 0.713745, 0.722534, 0.103638, -37.109375, 22.094727, 17.028809
2941901, 0.822144, 0.774536, 0.138062, -19.592285, 28.625496, 1.037598
2941921, 0.816528, 0.787354, 0.244507, 5.493164, 13.671879, -9.704590
2941941, 0.708252, 0.755005, 0.155762, 20.690918, -19.531250, -5.371094
2941961, 0.713867, 0.723877, 0.025024, 19.836426, -24.108894, 0.854492
2941981, 0.668945, 0.689209, 0.004028, 15.869144, -17.761230, -4.394531
2942001, 0.682495, 0.662354, 0.041748, 12.756351, -27.282722, -2.685547
2942021, 0.704102, 0.705444, 0.029785, 13.366703, -49.133316, -1.159668
2942041, 0.690552, 0.759277, -0.048706, 19.104004, -55.053726, -6.713869
2942061, 0.779541, 0.729980, -0.113647, 18.676758, -69.702148, -14.282230
2942081, 0.757568, 0.769897, 0.008911, 12.512211, -110.412628, 6.896975
2942101, 0.780396, 0.618164, -0.065186, 14.282230, -147.644043, 17.272949
2942141, 0.609863, 0.756592, -0.184570, -24.292000, -123.901398, 14.892582
2942181, 0.690674, 0.749390, -0.221069, -4.943848, -38.024902, 0.671387
2942201, 0.688965, 0.604126, -0.265747, 1.586915, -41.748047, 0.061035
2942221, 0.667969, 0.618286, -0.239380, -3.417970, -51.086441, 3.662110
2942241, 0.705444, 0.642700, -0.257202, -3.417970, -67.993164, 1.647950
2942261, 0.737793, 0.650146, -0.309570, -21.179199, -68.542480, -17.517090
2942281, 0.644897, 0.829834, -0.226440, -20.507813, -72.937012, -13.000492
2942301, 0.692993, 0.754272, -0.202026, 1.892090, -87.219238, -7.629396
2942321, 0.655273, 0.594727, -0.365112, -4.516602, -81.054688, -10.070801
2942341, 0.597046, 0.774292, -0.289185, -9.887695, -85.449219, -9.643555
2942361, 0.576172, 0.735352, -0.363892, 2.441406, -80.688477, -3.234864
2942381, 0.582642, 0.713013, -0.415894, -1.770020, -73.669434, -5.798342
2942401, 0.494507, 0.730103, -0.377197, -0.488281, -48.889175, -6.469728
2942421, 0.453369, 0.692505, -0.399536, 5.737307, -28.808601, 1.770020
2942441, 0.380615, 0.762573, -0.429321, 3.662110, 3.173829, 5.554201
2942461, 0.387329, 0.738403, -0.447510, 8.178711, 41.198730, 21.362305
2942481, 0.267212, 0.761963, -0.411499, 9.704590, 86.303711, 31.494148
2942501, 0.624146, 0.845947, -0.254395, 29.724129, 141.174316, 22.094727
2942541, 0.955811, 0.729858, -0.330078, 24.475105, 88.073730, -15.380863
2942581, 0.820679, 0.760498, -0.318359, 13.854984, -37.231445, -47.668472
2942601, 0.729370, 0.738525, -0.259644, 12.817387, -65.917969, -57.006851
2942621, 0.559937, 0.643188, -0.284058, 12.268070, -64.147949, -54.870621
2942661, 0.465454, 0.728027, -0.423340, -7.751467, -11.596684, -31.555183
2942681, 0.479492, 0.693848, -0.468750, -21.484375, 16.052246, -26.245125
2942722, 0.638428, 0.750122, -0.325562, -32.043457, 31.616219, -11.657719
2942742, 0.659912, 0.781006, -0.233887, -23.132332, 16.174316, -13.793949
2942762, 0.652466, 0.788208, -0.256470, -21.362305, -18.798828, -17.456055
2942782, 0.603394, 0.781372, -0.322388, -19.531250, -41.625977, -16.601563
2942802, 0.502319, 0.774170, -0.351196, -17.700195, -56.701675, -17.395020
2942822, 0.550781, 0.767334, -0.358521, -6.469728, -60.546890, -9.338379
2942842, 0.560547, 0.790771, -0.360229, -13.366703, -77.148438, -10.803223
2942862, 0.495972, 0.787476, -0.361450, -21.423340, -86.425781, -7.019045
2942962, 0.553345, 0.774292, -0.547363, -10.375977, -137.084961, -2.258301
2942982, 0.612061, 0.755127, -0.453491, -22.094727, -200.012268, 2.014160
2943002, 0.049927, 0.877319, -0.395508, -9.887695, -185.058655, -7.629396
2943022, 0.053955, 0.850708, -0.433350, -5.615236, -127.319366, -2.624512
2943042, 0.346558, 0.817749, -0.532227, -1.342773, -78.491211, -0.305176
2943062, 0.501953, 0.805908, -0.568359, -11.413578, -130.554199, -11.169437
2943082, 0.201660, 0.845825, -0.464722, -12.878422, -150.573730, -12.756351
2943102, 0.086182, 0.855469, -0.477905, -7.507326, -135.375977, -6.713869
2943122, 0.117188, 0.823608, -0.587280, -8.728027, -119.018585, -4.089355
2943142, 0.174927, 0.817749, -0.569580, -13.854984, -114.746124, -1.953125
2943162, -0.034058, 0.864746, -0.372925, -4.760742, -111.999542, 16.906738
2943182, -0.170288, 0.871094, -0.446533, 14.709476, -42.724609, 30.334480
2943202, 0.124268, 0.845459, -0.597534, -2.197266, -6.408693, 2.990724
2943222, 0.022705, 0.789673, -0.428345, 14.465336, -1.403809, 22.949226
2943242, 0.018555, 0.833130, -0.603638, 26.123055, 4.455566, 48.828140
2943282, 0.018677, 0.842041, -0.481689, 10.498047, 51.574722, 24.230965
2943302, 0.194092, 0.783447, -0.514160, 32.287598, 69.091797, 20.874023
2943342, 0.427612, 0.818604, -0.578369, 21.606445, 43.518066, -8.300781
2943362, 0.133423, 0.838257, -0.572021, 21.240234, 31.677254, -14.221195
2943382, 0.073486, 0.822876, -0.573486, 23.010262, 35.522461, -20.263672
2943402, 0.236816, 0.815063, -0.612915, 24.780281, 47.607437, -24.963387
2943422, 0.227051, 0.802002, -0.619873, 22.460945, 38.146973, -32.409668
2943442, 0.234131, 0.804810, -0.616943, 13.000492, 22.949226, -31.494148
2943462, 0.317383, 0.827759, -0.550293, 10.437012, 26.184090, -25.573738
2943482, 0.458496, 0.794678, -0.604858, 8.422852, 9.765625, -38.269043
2943502, 0.192383, 0.773560, -0.593994, 1.647950, -3.845216, -40.588379
2943522, 0.190552, 0.777100, -0.608887, -0.122070, -2.502441, -25.939949
2943542, 0.151489, 0.785522, -0.608276, -1.525879, 2.868653, -20.385742
2943562, 0.155640, 0.779053, -0.566650, -1.159668, 9.704590, -4.333496
2943582, 0.266724, 0.804810, -0.601318, -0.854492, 4.699707, -7.141115
2943642, 0.132568, 0.830444, -0.571167, 1.281738, 7.446291, -3.601075
