timestamp,ax,ay,az,gx,gy,gz
408356, 0.087402, 0.912109, -0.465942, -6.530764, -22.766121, 5.187988
408376, 0.074219, 0.899170, -0.440796, -7.385256, -19.714355, 7.934572
408396, 0.069946, 0.918457, -0.428101, -4.760742, -10.253906, -0.732422
408416, 0.055664, 0.913452, -0.418457, -2.319336, -5.126953, -0.183106
408436, 0.126343, 0.898560, -0.458130, -1.403809, 4.699707, 0.915528
408456, 0.236450, 0.890869, -0.470581, -4.089355, -2.868653, -4.394531
408476, 0.132446, 0.904541, -0.436279, -6.103518, -11.474613, -8.117676
408496, -0.002808, 0.918457, -0.407227, -3.784181, -7.080080, -4.272461
408516, 0.058472, 0.911743, -0.420166, -0.122070, 9.094238, 0.549316
408536, 0.244385, 0.886719, -0.491089, -0.976563, 19.409180, -5.554201
408556, 0.364258, 0.880005, -0.501709, -8.666992, 3.540040, -20.446777
408576, 0.065186, 0.910278, -0.423706, -8.911133, -8.728027, -25.390633
408596, -0.068115, 0.925903, -0.395020, -7.141115, -2.136230, -14.892582
408616, -0.011475, 0.922974, -0.405273, -3.173829, 10.314941, -5.065918
408636, 0.153687, 0.905029, -0.454590, -3.479005, 19.348145, -5.493164
408656, 0.336670, 0.885132, -0.501587, -12.084965, 15.625004, -26.733406
408676, 0.217773, 0.909058, -0.423462, -15.991215, 0.244141, -41.992188
408696, -0.092529, 0.932983, -0.359375, -14.404301, -5.065918, -38.879395
408716, -0.316650, 0.973145, -0.259888, -2.563477, 4.150391, -13.427738
408736, -0.089600, 0.951050, -0.303467, 8.239746, 13.000492, 9.826660
408756, 0.260254, 0.924072, -0.395630, 13.183598, 14.343266, 3.417970
408776, 0.271362, 0.898071, -0.473511, 10.375977, -0.427246, -13.061527
408796, -0.013062, 0.905762, -0.476074, 4.455566, -8.178711, -14.587406
408816, -0.073608, 0.926758, -0.406128, 3.356935, -4.211426, -3.540040
408836, 0.087524, 0.919922, -0.416870, 5.310059, -3.540040, -0.488281
408856, 0.116455, 0.903809, -0.472046, 1.647950, -6.286623, -7.629396
408876, 0.078247, 0.916016, -0.431030, -0.610352, -8.605957, -11.352543
408896, -0.056396, 0.927124, -0.403931, 0.061035, -9.704590, -7.995607
408916, -0.093018, 0.929810, -0.394165, 3.417970, -2.929688, 2.685547
408936, 0.056030, 0.914673, -0.434204, 4.333496, 2.258301, 6.103518
408956, 0.125366, 0.905151, -0.468750, 2.075195, 2.319336, 1.708985
408976, 0.097046, 0.910156, -0.451294, -1.831055, -1.037598, -4.455566
408996, -0.005615, 0.922729, -0.416016, -0.793457, -1.403809, -2.807618
409016, 0.015869, 0.923828, -0.405640, 0.671387, -0.976563, 1.220703
409036, 0.049438, 0.916626, -0.432251, 0.854492, -1.464844, 1.159668
409056, 0.043945, 0.918213, -0.425781, 0.122070, 0.244141, 0.427246
409076, 0.043457, 0.917969, -0.430298, 0.183106, 1.403809, 0.976563
409096, 0.040405, 0.920166, -0.419312, 1.037598, 1.403809, 1.342773
409116, 0.073608, 0.913818, -0.439819, -0.061035, 0.488281, 0.976563
409136, 0.072510, 0.918945, -0.424561, -0.244141, -2.136230, -1.220703
409156, 0.016724, 0.920532, -0.418701, 0.366211, -2.929688, -0.671387
409176, 0.031006, 0.917114, -0.439453, 0.549316, -0.671387, 1.464844
409196, 0.050049, 0.917358, -0.428101, -0.610352, -0.488281, 1.647950
409216, 0.036987, 0.923096, -0.412476, 0.366211, -0.610352, 1.586915
409236, 0.081543, 0.916138, -0.432373, 1.647950, 1.098633, 1.953125
409256, 0.088745, 0.909546, -0.454224, -0.183106, -1.037598, -1.342773
409276, 0.031616, 0.918457, -0.426758, -1.464844, -2.502441, -1.770020
409296, 0.010742, 0.926392, -0.397461, 0.366211, -2.075195, 0.976563
409316, 0.044067, 0.919189, -0.420044, 2.258301, -0.061035, 3.051759
409336, 0.083374, 0.907349, -0.460449, 0.244141, -1.159668, 1.403809
409356, 0.055176, 0.917969, -0.428223, -1.220703, -1.281738, -0.366211
409376, 0.041382, 0.924194, -0.406494, -0.366211, -0.244141, 0.122070
409396, 0.056885, 0.923584, -0.406006, 1.892090, -0.488281, 0.122070
409416, 0.051758, 0.911133, -0.452881, 1.342773, -1.037598, -0.183106
409436, 0.052612, 0.912231, -0.448608, -0.976563, -2.197266, 0.183106
409456, 0.055420, 0.921753, -0.416138, -1.525879, -2.197266, -0.366211
409476, 0.061401, 0.924194, -0.404663, 0.671387, -1.220703, -1.098633
409496, 0.030518, 0.925537, -0.405273, 2.441406, -1.464844, -1.342773
409516, 0.026855, 0.913574, -0.447632, 2.014160, 0.122070, 0.732422
409536, 0.053101, 0.911621, -0.452637, 0.366211, 0.305176, 1.525879
409556, 0.081055, 0.918213, -0.432861, -1.037598, -0.671387, 0.061035
409576, 0.052979, 0.926636, -0.391357, 0.244141, -0.976563, -1.586915
409596, 0.023682, 0.920044, -0.421753, 2.624512, -0.671387, 0.671387
409616, 0.058228, 0.908325, -0.451782, 0.610352, -0.488281, 0.793457
409636, 0.060303, 0.916626, -0.430908, -0.610352, -0.976563, 0.122070
409656, 0.038818, 0.926880, -0.398071, 1.037598, -1.037598, -0.122070
409676, 0.034302, 0.916016, -0.435913, 2.319336, 0.244141, 1.464844
409696, 0.068359, 0.913086, -0.446533, 0.671387, 0.610352, 1.037598
409716, 0.076538, 0.912720, -0.440430, -0.610352, -0.183106, -0.854492
409736, 0.034790, 0.922363, -0.409180, -0.244141, -2.136230, -1.159668
409756, 0.007202, 0.922607, -0.417236, 1.342773, -0.671387, 2.380371
409776, 0.070190, 0.915527, -0.432617, 1.525879, 0.183106, 2.746582
409796, 0.079468, 0.914185, -0.434937, 0.061035, 0.366211, -1.220703
409816, 0.055786, 0.920410, -0.414551, 0.793457, -0.488281, -2.563477
409836, 0.039429, 0.914307, -0.443237, 1.037598, -0.305176, -1.403809
409856, 0.058105, 0.914307, -0.439575, -0.488281, -1.098633, -1.525879
409876, 0.049194, 0.917969, -0.426758, -0.793457, -1.037598, -1.464844
409896, 0.037354, 0.921753, -0.411621, -0.305176, -1.037598, -1.220703
409916, 0.023682, 0.920776, -0.418701, 1.647950, 0.305176, 0.549316
409936, 0.048218, 0.911621, -0.451172, 0.854492, 1.098633, 1.464844
409956, 0.089966, 0.909180, -0.455811, -1.525879, 0.427246, 0.000000
409976, 0.062744, 0.921021, -0.416016, -2.685547, -2.990724, -1.708985
409996, 0.011108, 0.926147, -0.397217, 1.831055, -2.258301, 0.915528
410016, 0.011719, 0.918457, -0.428833, 2.990724, -0.427246, 3.845216
410036, 0.083008, 0.915039, -0.438965, 2.014160, 1.647950, 3.662110
410056, 0.101074, 0.912720, -0.435913, 1.708985, 0.671387, -0.244141
410076, 0.050049, 0.919189, -0.422607, 0.793457, -0.549316, -2.258301
410096, 0.000610, 0.922974, -0.408325, 2.990724, 0.488281, 0.671387
410116, 0.044189, 0.914185, -0.441528, 2.868653, 1.647950, 3.356935
410136, 0.093262, 0.909424, -0.452148, 1.708985, 0.549316, 1.892090
410156, 0.092773, 0.910278, -0.446167, -0.183106, -0.976563, -1.159668
410176, 0.049194, 0.915161, -0.433960, -1.403809, -2.197266, -2.502441
410196, 0.043701, 0.920532, -0.419312, -1.159668, -1.770020, -1.892090
410216, 0.042603, 0.922363, -0.409668, 0.793457, -1.708985, -1.159668
410236, 0.058228, 0.916504, -0.429932, 1.281738, -1.892090, -1.037598
410256, 0.060303, 0.913086, -0.441895, 0.610352, -2.197266, -1.892090
410276, 0.034790, 0.917603, -0.429688, 0.122070, -2.075195, -1.831055
410296, 0.033081, 0.917969, -0.426758, 0.305176, 0.000000, -0.305176
410316, 0.058228, 0.919067, -0.423584, 0.915528, -0.366211, -0.427246
410336, 0.067017, 0.915283, -0.433716, 0.854492, -1.098633, -1.708985
410356, 0.024902, 0.917847, -0.423218, 1.403809, -1.159668, -0.183106
410376, 0.057495, 0.916382, -0.428101, 1.586915, 0.000000, 0.183106
410396, 0.057861, 0.916260, -0.433960, 1.953125, 0.610352, -0.732422
410416, 0.059082, 0.912476, -0.441650, 1.098633, -0.244141, -1.708985
410436, 0.029785, 0.909546, -0.456177, -0.671387, -0.610352, -1.037598
410456, 0.039673, 0.916504, -0.432373, -1.525879, -0.488281, 0.244141
410476, 0.044312, 0.924561, -0.403687, -0.122070, -1.098633, 0.610352
410496, 0.036987, 0.917358, -0.423584, 1.342773, -0.671387, 0.915528
410516, 0.042114, 0.912476, -0.445435, 0.854492, 0.183106, 1.953125
410536, 0.075439, 0.910522, -0.447021, -0.610352, -0.366211, 0.793457
410556, 0.012085, 0.923096, -0.410400, 0.000000, -1.220703, 1.525879
410576, 0.058594, 0.921021, -0.411621, 1.647950, 0.610352, 2.746582
410596, 0.086426, 0.909790, -0.449585, 1.464844, -0.488281, 0.244141
410616, 0.046509, 0.908447, -0.457397, -0.610352, -1.281738, -0.915528
410636, 0.027344, 0.916992, -0.434814, -2.136230, -0.366211, 0.671387
410656, 0.052856, 0.922485, -0.406006, -1.220703, -0.122070, 1.342773
410676, 0.065186, 0.919678, -0.416382, 0.610352, -0.793457, 0.732422
410696, 0.062256, 0.915527, -0.434448, 0.854492, -1.647950, -0.671387
410716, 0.027344, 0.914795, -0.433228, 0.183106, -1.586915, 0.122070
410736, 0.041504, 0.915894, -0.436890, -0.671387, -0.671387, 1.708985
410756, 0.061890, 0.914307, -0.433472, -1.220703, -1.586915, 1.098633
410776, 0.057129, 0.916870, -0.428101, -1.586915, -0.854492, 0.427246
410796, 0.048340, 0.921631, -0.411133, -0.793457, -0.671387, 0.305176
410816, 0.054199, 0.922363, -0.416138, 0.549316, -0.732422, 0.549316
410836, 0.052856, 0.916870, -0.424561, 0.915528, -1.281738, 0.305176
410856, 0.026733, 0.917847, -0.427368, 1.098633, -1.647950, 1.525879
410876, 0.029907, 0.914185, -0.437256, 0.610352, -0.305176, 3.845216
410896, 0.078125, 0.914185, -0.435669, -0.122070, -0.183106, 3.601075
410916, 0.103516, 0.917969, -0.421875, -0.549316, -0.610352, 0.244141
410936, 0.062988, 0.923340, -0.403076, 1.647950, -1.220703, -4.455566
410956, 0.007935, 0.918579, -0.430054, 2.746582, -1.525879, -2.197266
410976, 0.023926, 0.914551, -0.438721, 1.953125, -0.488281, 1.281738
410996, 0.060303, 0.912964, -0.440430, 0.793457, -1.770020, 2.075195
411016, 0.080688, 0.913330, -0.439453, -0.061035, -0.305176, 0.244141
411036, 0.074829, 0.918579, -0.417725, -0.061035, 0.122070, -2.258301
411056, 0.044800, 0.919434, -0.421509, 0.610352, -0.122070, -2.380371
411076, 0.030884, 0.918579, -0.429077, 1.403809, 0.305176, -0.854492
411096, 0.062988, 0.911011, -0.448853, -0.366211, 0.549316, -0.488281
411116, 0.032227, 0.917969, -0.421631, -0.305176, 0.549316, -1.159668
411136, 0.020752, 0.919800, -0.419189, 0.366211, 2.441406, 1.647950
411156, 0.090088, 0.913574, -0.440308, 0.305176, 2.685547, 1.037598
411176, 0.097656, 0.913940, -0.438232, -1.037598, 1.037598, -2.441406
411196, 0.058716, 0.920898, -0.419067, -1.098633, 0.122070, -4.150391
411216, 0.000366, 0.924683, -0.402710, 0.305176, -1.831055, -1.586915
411236, 0.018555, 0.920166, -0.419800, 2.075195, -0.061035, 2.380371
411256, 0.077881, 0.915405, -0.433960, 1.770020, -0.061035, 1.831055
411276, 0.060669, 0.915283, -0.435303, 0.976563, -0.061035, 0.305176
411296, 0.033691, 0.919556, -0.417480, 1.281738, 0.610352, 0.793457
411316, 0.070557, 0.915405, -0.432373, 1.647950, 0.915528, 2.319336
411336, 0.089111, 0.912109, -0.442871, 0.793457, -0.183106, 0.061035
411356, 0.060913, 0.917725, -0.423828, -0.061035, -0.976563, -1.525879
411376, 0.020752, 0.922363, -0.410889, 1.586915, -1.464844, 0.000000
411396, 0.019165, 0.919434, -0.418945, 2.502441, -0.732422, 3.540040
411416, 0.068848, 0.912720, -0.438232, 2.807618, 0.854492, 4.089355
411436, 0.097046, 0.910645, -0.444702, 1.403809, -0.183106, 1.647950
411456, 0.083618, 0.912476, -0.438110, 0.427246, -1.342773, -0.854492
411476, 0.035156, 0.922241, -0.409058, 1.342773, -1.281738, -0.854492
411496, 0.067749, 0.910278, -0.445435, 2.197266, -0.061035, 0.793457
411516, 0.083618, 0.908569, -0.452026, 0.305176, -1.403809, -0.976563
411536, 0.037231, 0.912842, -0.437744, -0.976563, -2.563477, -0.915528
411556, 0.027100, 0.919189, -0.418945, -0.305176, -1.098633, 1.586915
411576, 0.059326, 0.912964, -0.434448, 0.244141, -0.427246, 2.746582
411596, 0.106201, 0.909302, -0.447144, -0.732422, -0.671387, 0.427246
411616, 0.082275, 0.912231, -0.439819, -2.441406, -2.197266, -2.685547
411636, 0.022095, 0.921387, -0.411255, -1.647950, -2.441406, -1.770020
411656, 0.019409, 0.922485, -0.412720, 0.244141, -0.610352, 1.586915
411676, 0.077148, 0.916260, -0.428711, 0.976563, 0.915528, 1.892090
411696, 0.071045, 0.916260, -0.431152, 0.183106, 0.122070, -2.197266
411716, 0.022949, 0.922241, -0.408569, 1.464844, 0.854492, -0.915528
411736, 0.059570, 0.915771, -0.428833, 2.502441, 2.502441, 0.732422
411756, 0.098755, 0.909912, -0.441406, 1.403809, 3.051759, -1.770020
411776, 0.063599, 0.915771, -0.430664, 1.159668, 1.708985, -4.028320
411796, 0.029175, 0.921875, -0.412231, 2.075195, 3.234864, -2.136230
411816, 0.067871, 0.909668, -0.445557, 2.197266, -0.488281, -0.976563
411836, 0.058105, 0.907593, -0.454102, 0.427246, -1.953125, -0.976563
411856, 0.057129, 0.912231, -0.442749, -1.037598, -2.075195, -0.976563
411876, 0.015625, 0.925171, -0.397949, -0.183106, -0.671387, 1.525879
411896, 0.057129, 0.915771, -0.427124, 1.831055, 1.403809, 2.990724
411916, 0.086182, 0.914307, -0.434814, 1.464844, 0.549316, 1.464844
411936, 0.090576, 0.909424, -0.449707, 0.305176, 2.075195, -1.586915
411956, 0.074097, 0.917603, -0.414673, 0.610352, 0.610352, -3.051759
411976, 0.053223, 0.918457, -0.421387, 1.525879, -2.319336, -2.868653
411996, -0.002930, 0.914673, -0.433105, 2.197266, -4.089355, 0.793457
412016, 0.002808, 0.914307, -0.436523, 1.647950, -2.014160, 5.371094
412036, 0.088867, 0.914063, -0.435059, 2.075195, 2.075195, 5.554201
412056, 0.123291, 0.907959, -0.444092, 0.854492, 0.244141, 0.732422
412076, 0.088135, 0.902710, -0.471436, -1.708985, -2.319336, -2.319336
412096, 0.073364, 0.914429, -0.431274, -3.723145, -3.295899, -4.089355
412116, 0.030762, 0.925903, -0.390015, -1.525879, -3.967286, -3.417970
412136, -0.019775, 0.922485, -0.403076, 2.136230, -5.737307, 1.770020
412156, -0.000854, 0.917358, -0.424805, 3.234864, -3.417970, 7.568361
412176, 0.112915, 0.906982, -0.454956, 2.380371, 0.366211, 6.408693
412196, 0.100830, 0.916382, -0.420288, 1.831055, -0.122070, 1.159668
412216, 0.087769, 0.911133, -0.438354, 2.685547, -0.976563, -0.244141
412236, 0.079956, 0.903564, -0.467041, 0.549316, -9.155273, -0.854492
412256, -0.022095, 0.917603, -0.423462, -1.220703, -11.352543, 5.004883
412276, 0.019653, 0.922485, -0.404053, 0.671387, -7.019045, 9.460449
412296, 0.106689, 0.919800, -0.407104, 4.211426, -2.746582, 7.690432
412316, 0.143555, 0.904907, -0.455688, 3.601075, -2.746582, 1.586915
412336, 0.073608, 0.901001, -0.470459, 0.610352, -6.591799, -1.831055
412356, -0.016724, 0.918823, -0.417236, 1.037598, -3.540040, 1.892090
412376, 0.047363, 0.917358, -0.414185, 2.868653, 2.075195, 5.004883
412396, 0.127563, 0.904907, -0.457153, 3.295899, 2.075195, 1.953125
412416, 0.111816, 0.900146, -0.468384, 0.366211, -0.244141, -2.319336
412436, 0.041748, 0.912231, -0.439575, -0.854492, -1.892090, -2.441406
412456, 0.050903, 0.916504, -0.425659, 0.610352, -1.403809, -0.366211
412476, 0.061523, 0.910767, -0.439209, 1.159668, -0.366211, 0.183106
412496, 0.067383, 0.906616, -0.454468, -0.122070, -1.403809, -0.122070
412516, 0.040894, 0.918091, -0.420532, 0.366211, -2.258301, 1.403809
412536, 0.067993, 0.915527, -0.422363, 1.647950, -1.708985, 2.136230
412556, 0.064331, 0.912476, -0.434204, 2.990724, -1.647950, 1.831055
412576, 0.083740, 0.906128, -0.452759, 2.502441, -1.220703, 0.915528
412596, 0.070923, 0.909424, -0.450439, 1.281738, -0.671387, -0.244141
412616, 0.062866, 0.908691, -0.443359, 0.976563, -1.281738, -0.122070
412636, 0.070923, 0.904175, -0.458984, -0.122070, -0.488281, 0.488281
412656, 0.098999, 0.901855, -0.466309, -2.380371, -0.549316, -1.464844
412676, 0.084229, 0.912720, -0.439575, -3.356935, -1.525879, -3.845216
412696, 0.028198, 0.918091, -0.416382, -2.197266, -1.281738, -2.929688
412716, 0.026001, 0.916260, -0.421265, -0.122070, 0.488281, 0.061035
412736, 0.049438, 0.910034, -0.447021, -0.244141, 0.549316, 2.136230
412756, 0.095215, 0.907959, -0.449097, -0.854492, 0.793457, 1.525879
412776, 0.109619, 0.906250, -0.451660, -2.441406, -0.366211, -2.197266
412796, 0.053955, 0.917480, -0.424072, -2.624512, -1.098633, -3.540040
412816, 0.000977, 0.921509, -0.404785, -0.671387, -0.854492, -0.305176
412836, 0.050659, 0.917603, -0.416504, 3.784181, 0.854492, 6.530764
412856, 0.114136, 0.908081, -0.446289, 3.417970, 0.549316, 4.394531
412876, 0.110962, 0.909790, -0.441406, 2.685547, 0.000000, 0.305176
412896, 0.080200, 0.918213, -0.415771, 3.234864, -1.220703, -1.770020
412916, 0.019409, 0.920288, -0.430298, 5.737307, -3.051759, 0.305176
412936, 0.007080, 0.912720, -0.436890, 0.183106, -6.652834, 5.065918
412956, -0.013062, 0.904541, -0.450562, 3.112794, -6.042482, 11.657719
412976, 0.016235, 0.899292, -0.467041, 1.708985, 1.525879, 16.174316
412996, 0.102173, 0.894165, -0.476685, 0.671387, 7.568361, 16.540527
413016, 0.266724, 0.891724, -0.489136, -4.150391, 4.516602, 3.479005
413036, 0.194946, 0.913208, -0.415161, -5.187988, -4.211426, -8.117676
413056, 0.059326, 0.924316, -0.381592, -1.464844, -3.356935, -10.498047
413076, 0.001709, 0.928223, -0.374146, 4.150391, -1.647950, -5.615236
413096, 0.085815, 0.898315, -0.477783, 5.310059, -0.854492, -2.136230
413116, 0.138550, 0.895264, -0.490234, 0.183106, -1.098633, -5.493164
413136, 0.140015, 0.900269, -0.472778, -3.051759, -2.807618, -11.230473
413156, 0.039795, 0.907593, -0.454834, -5.310059, -6.286623, -12.268070
413176, -0.037354, 0.922485, -0.408813, -4.211426, -3.784181, -5.798342
413196, -0.007324, 0.927002, -0.390747, -0.976563, -1.220703, 1.281738
413216, 0.040283, 0.916870, -0.421631, 3.723145, 2.807618, 6.591799
413236, 0.102295, 0.903564, -0.462891, 2.441406, 5.493164, 5.493164
413256, 0.114258, 0.904907, -0.453979, 0.488281, 3.784181, 2.380371
413276, 0.073730, 0.916626, -0.423706, 0.061035, 0.976563, 0.915528
413296, 0.050537, 0.920532, -0.407349, 2.746582, 0.671387, 3.173829
413316, 0.135620, 0.908936, -0.445435, 3.662110, 0.122070, 1.647950
413336, 0.143677, 0.900635, -0.466064, 1.892090, -2.807618, -3.662110
413356, 0.042480, 0.903687, -0.464478, -1.098633, -5.493164, -5.065918
413376, -0.025513, 0.922119, -0.407471, -0.061035, -2.502441, 1.525879
413396, 0.098877, 0.913818, -0.426636, 3.479005, -0.732422, 5.493164
413416, 0.140747, 0.900269, -0.467773, 2.990724, -1.098633, 1.647950
413436, 0.103638, 0.895630, -0.489014, -1.220703, -3.295899, -2.502441
413456, 0.041870, 0.908936, -0.448242, -3.417970, -2.624512, -1.464844
413476, 0.045166, 0.918335, -0.415405, -2.380371, -1.403809, 1.037598
413496, 0.087036, 0.921631, -0.402710, 0.488281, 0.427246, 1.464844
413516, 0.132324, 0.906006, -0.447876, 1.953125, 0.000000, -1.892090
413536, 0.074707, 0.902100, -0.472046, -1.525879, -2.502441, -4.455566
413556, 0.014526, 0.917847, -0.421997, -1.281738, -1.831055, -1.342773
413576, 0.034302, 0.923218, -0.398315, 1.159668, 0.671387, 2.746582
413596, 0.114746, 0.908447, -0.440308, 4.028320, 1.647950, 1.586915
413616, 0.119263, 0.901855, -0.467529, 2.441406, 0.183106, -2.075195
413636, 0.065308, 0.905762, -0.454834, 0.305176, -1.220703, -3.295899
413656, 0.036133, 0.911865, -0.437500, 0.488281, -0.061035, -0.793457
413676, 0.031860, 0.909546, -0.442627, -0.244141, 0.366211, 2.258301
413696, 0.109863, 0.912354, -0.433472, 0.610352, 2.685547, 2.685547
413716, 0.148682, 0.904541, -0.452026, -0.305176, 0.183106, -2.685547
413736, 0.071289, 0.911011, -0.436890, -0.427246, -2.441406, -4.882813
413756, 0.007080, 0.915405, -0.431519, -0.244141, -2.441406, -1.403809
413776, 0.070190, 0.916016, -0.419067, 2.746582, 1.770020, 4.821777
413796, 0.125977, 0.906982, -0.448853, 2.563477, 0.183106, 1.403809
413816, 0.087891, 0.905518, -0.455078, 1.708985, -0.793457, -0.793457
413836, 0.059570, 0.905396, -0.455811, 0.305176, -1.403809, -0.183106
413856, 0.066528, 0.906616, -0.451050, -0.610352, -1.159668, 1.037598
413876, 0.079102, 0.911377, -0.440186, -1.159668, -1.220703, 1.220703
413896, 0.065674, 0.911499, -0.432251, -0.793457, -0.793457, 1.342773
413916, 0.091431, 0.911987, -0.428833, 0.305176, 0.793457, 1.525879
413936, 0.136963, 0.905640, -0.451660, -0.183106, -0.915528, -2.258301
413956, 0.061035, 0.907959, -0.446655, -1.098633, -2.990724, -4.028320
413976, 0.024292, 0.917603, -0.416138, -0.061035, -0.549316, 2.502441
413996, 0.097900, 0.914429, -0.422974, 1.892090, 0.976563, 3.356935
414016, 0.147461, 0.902954, -0.458252, 1.403809, -0.549316, -1.281738
414036, 0.084595, 0.904053, -0.459961, -0.732422, -2.807618, -4.455566
414056, 0.003662, 0.913818, -0.431763, -1.220703, -2.319336, -1.403809
414076, 0.032837, 0.917725, -0.417847, 0.366211, 0.610352, 3.479005
414096, 0.128052, 0.911865, -0.430542, 1.708985, 0.610352, 2.502441
414116, 0.127686, 0.905273, -0.452881, 0.976563, -1.953125, -2.502441
414136, 0.047729, 0.907959, -0.450317, -0.122070, -2.563477, -2.807618
414156, 0.032104, 0.917847, -0.420044, 0.183106, -0.793457, 2.502441
414176, 0.083740, 0.913208, -0.426758, 1.831055, 1.220703, 3.662110
414196, 0.129761, 0.906860, -0.447510, 1.586915, 0.305176, 0.549316
414216, 0.102661, 0.907104, -0.448242, 0.915528, -1.464844, -2.868653
414236, 0.050415, 0.908691, -0.448242, -0.061035, -1.831055, -2.197266
414256, 0.042358, 0.911621, -0.437622, -0.183106, -0.976563, 0.061035
414276, 0.060059, 0.912109, -0.434814, 0.122070, 0.671387, 2.136230
414296, 0.123291, 0.908691, -0.443115, 0.244141, 0.732422, 0.366211
414316, 0.104126, 0.909912, -0.439087, -0.305176, -1.159668, -3.051759
414336, 0.043579, 0.914307, -0.429810, 0.366211, -2.014160, -2.685547
414356, 0.055786, 0.911499, -0.432007, 1.647950, 0.976563, 2.319336
414376, 0.110962, 0.904785, -0.457520, 0.854492, 0.000000, 1.220703
414396, 0.108032, 0.906738, -0.448364, -0.488281, -1.770020, -1.892090
414416, 0.044922, 0.914307, -0.425293, -0.305176, -2.014160, -1.708985
414436, 0.036255, 0.916138, -0.421387, 1.281738, 0.000000, 1.464844
414456, 0.088379, 0.909668, -0.441406, 2.136230, 0.793457, 2.197266
414476, 0.116211, 0.904175, -0.460083, 0.671387, -0.122070, -0.488281
414496, 0.089478, 0.906738, -0.450684, -0.732422, -1.892090, -2.624512
414516, 0.032837, 0.915649, -0.426636, -0.671387, -2.136230, -1.403809
414536, 0.069824, 0.912598, -0.433594, 1.708985, 1.525879, 3.234864
414556, 0.137085, 0.903320, -0.458374, 0.610352, 0.610352, 0.000000
414576, 0.103271, 0.910034, -0.442017, -0.366211, -1.586915, -3.601075
414596, 0.038818, 0.911255, -0.436035, -0.427246, -2.563477, -2.868653
414616, 0.015991, 0.915405, -0.428711, 0.488281, -0.671387, 1.403809
414636, 0.081299, 0.911499, -0.436157, 1.037598, 1.220703, 3.173829
414656, 0.137085, 0.907349, -0.448608, 0.671387, 0.244141, -0.366211
414676, 0.084106, 0.909912, -0.438477, -0.061035, -1.953125, -3.479005
414696, 0.012329, 0.915283, -0.428711, 0.793457, -1.342773, -0.610352
414716, 0.060303, 0.909790, -0.442871, 1.220703, 0.854492, 2.746582
414736, 0.117920, 0.906128, -0.450684, -0.244141, -0.366211, -1.220703
414756, 0.065063, 0.912231, -0.434692, -0.793457, -1.525879, -2.136230
414776, 0.044189, 0.916626, -0.419556, 0.427246, -0.854492, -0.122070
414796, 0.080933, 0.911499, -0.434082, 1.953125, -0.122070, 0.732422
414816, 0.087891, 0.906128, -0.452026, 0.732422, -0.854492, -0.793457
414836, 0.071533, 0.909668, -0.445435, 0.183106, -0.854492, -0.854492
414856, 0.066162, 0.910645, -0.438232, -0.122070, -0.732422, -0.488281
414876, 0.065308, 0.914185, -0.428833, 0.488281, -0.244141, 0.183106
414896, 0.082642, 0.909424, -0.442383, 0.976563, -0.610352, 0.244141
414916, 0.053467, 0.911621, -0.435669, 0.183106, -1.220703, 0.366211
414936, 0.055664, 0.915527, -0.424683, 1.098633, -0.183106, 2.380371
414956, 0.095947, 0.910400, -0.439697, 1.708985, 0.305176, 2.014160
414976, 0.114136, 0.907715, -0.444214, 1.708985, -0.854492, -0.854492
414996, 0.073608, 0.907104, -0.453247, 0.488281, -2.197266, -2.197266
415016, 0.047363, 0.906982, -0.450928, -0.488281, -2.014160, -0.732422
415036, 0.042725, 0.914795, -0.424683, -0.183106, -0.976563, 1.708985
415056, 0.088989, 0.911499, -0.433716, 0.915528, 0.610352, 2.136230
415076, 0.120483, 0.910889, -0.438599, 1.281738, -0.244141, -0.732422
415096, 0.080078, 0.909180, -0.440308, 0.976563, -1.892090, -2.746582
415116, 0.035645, 0.908447, -0.452881, 0.366211, -1.220703, 0.244141
415136, 0.066406, 0.910156, -0.437988, 0.244141, 0.427246, 2.136230
415156, 0.098389, 0.912231, -0.432129, 0.366211, 0.244141, 0.976563
415176, 0.114258, 0.908936, -0.443848, 1.220703, -0.671387, -1.464844
415196, 0.073364, 0.907227, -0.451172, -0.366211, -2.624512, -3.234864
415216, 0.023926, 0.914307, -0.428467, 0.183106, -1.342773, -0.366211
415236, 0.056396, 0.911255, -0.434937, 0.976563, 0.488281, 2.197266
415256, 0.105469, 0.908813, -0.443604, 0.976563, 0.610352, 1.281738
415276, 0.112549, 0.906738, -0.450317, 0.244141, -0.793457, -1.770020
415296, 0.030518, 0.913940, -0.429932, 0.122070, -1.892090, -1.831055
415316, 0.022339, 0.915283, -0.427734, 1.342773, 0.366211, 2.502441
415336, 0.104736, 0.906982, -0.443970, 1.892090, 1.464844, 2.990724
415356, 0.126587, 0.906250, -0.451660, 0.793457, -0.122070, -1.098633
415376, 0.079224, 0.906372, -0.449951, 0.244141, -1.159668, -3.173829
415396, 0.032349, 0.911011, -0.439331, -0.366211, -1.403809, -1.281738
415416, 0.036377, 0.912354, -0.435547, 0.366211, -0.061035, 2.258301
415436, 0.099243, 0.910156, -0.438721, 0.732422, 1.220703, 2.441406
415456, 0.124878, 0.906616, -0.451172, -0.183106, -0.610352, -1.098633
415476, 0.060913, 0.911011, -0.436279, -0.183106, -2.014160, -2.380371
415496, 0.042480, 0.913574, -0.429443, 1.464844, -0.122070, 2.197266
415516, 0.105469, 0.907349, -0.447876, 1.525879, 0.427246, 1.708985
415536, 0.107910, 0.905151, -0.455322, 0.305176, -1.159668, -1.403809
415556, 0.058350, 0.908691, -0.440674, -0.366211, -1.831055, -1.525879
415576, 0.038696, 0.917358, -0.422729, 0.610352, -0.732422, 0.854492
415596, 0.089844, 0.909912, -0.438843, 1.831055, 0.610352, 1.708985
415616, 0.111938, 0.904663, -0.458374, 0.488281, -0.976563, -1.159668
415636, 0.061279, 0.908936, -0.446045, -0.366211, -2.136230, -1.892090
415656, 0.039917, 0.914551, -0.429443, 0.122070, -0.793457, 0.549316
415676, 0.095093, 0.909546, -0.438843, 0.915528, -0.122070, 0.610352
415696, 0.086182, 0.908325, -0.447144, 0.732422, -1.098633, -0.793457
415716, 0.064697, 0.909668, -0.441162, 0.183106, -1.159668, -0.610352
415736, 0.060181, 0.909058, -0.444946, 0.305176, -0.427246, 0.305176
415756, 0.075073, 0.910522, -0.439819, 0.122070, 0.305176, 0.854492
415776, 0.096313, 0.909302, -0.440308, 0.305176, -0.061035, -0.427246
415796, 0.069336, 0.911255, -0.436401, 0.366211, -0.305176, -1.159668
415816, 0.061157, 0.912109, -0.435913, 0.793457, -0.061035, -0.183106
415836, 0.070801, 0.910522, -0.440552, 1.159668, 0.183106, 0.610352
415856, 0.089966, 0.906616, -0.447632, 0.793457, -15.563969, -0.549316
415876, 0.068237, 0.908325, -0.444824, 0.000000, -1.037598, -0.610352
415896, 0.056030, 0.912231, -0.434570, 0.183106, -0.244141, 0.671387
415916, 0.088501, 0.910767, -0.440430, 0.671387, 0.610352, 0.427246
415936, 0.077271, 0.908936, -0.443237, 0.610352, 0.732422, -0.549316
415956, 0.060181, 0.911865, -0.436523, 0.610352, 1.342773, 0.122070
415976, 0.066406, 0.910278, -0.438354, 1.159668, 1.708985, 0.976563
415996, 0.068359, 0.910034, -0.440552, 1.037598, 1.586915, 2.075195
416016, 0.107300, 0.908813, -0.442261, 1.098633, 1.220703, 1.464844
416036, 0.104492, 0.906982, -0.446655, 0.488281, -1.281738, -0.976563
416056, 0.051147, 0.909790, -0.442383, 0.732422, -1.220703, -0.366211
416076, 0.063110, 0.908447, -0.442749, 0.915528, -0.122070, 1.403809
416096, 0.101074, 0.905029, -0.454346, 0.244141, 0.122070, 0.793457
416116, 0.096558, 0.908813, -0.440186, -0.488281, -0.976563, -1.098633
416136, 0.067871, 0.910278, -0.437988, 0.183106, -1.342773, -1.220703
416156, 0.052490, 0.913208, -0.430054, 0.549316, -0.976563, 0.427246
416176, 0.073975, 0.908569, -0.439941, 1.403809, -0.244141, 1.525879
416196, 0.100464, 0.905396, -0.454102, 0.732422, -0.305176, 0.427246
416216, 0.092651, 0.906250, -0.450562, -0.366211, -0.793457, -1.342773
416236, 0.062988, 0.913452, -0.428467, 15.502934, -0.427246, -0.427246
416256, 0.056641, 0.910156, -0.436768, 1.403809, 0.549316, 1.281738
416276, 0.078735, 0.907104, -0.446411, 1.708985, 1.464844, 2.441406
416296, 0.126709, 0.901855, -0.458618, 0.305176, 0.488281, 0.122070
416316, 0.095215, 0.908447, -0.447021, -0.427246, -1.159668, -2.624512
416336, 0.040283, 0.909546, -0.440186, -0.671387, -1.464844, -1.342773
416356, 0.048218, 0.913574, -0.424927, 0.488281, 0.183106, 1.953125
416376, 0.111328, 0.908325, -0.443115, 0.915528, 0.183106, 1.281738
416396, 0.109619, 0.907593, -0.444214, 0.610352, -1.037598, -1.586915
416416, 0.060059, 0.909302, -0.441772, 0.610352, -1.281738, -2.014160
416436, 0.059326, 0.909668, -0.439209, 0.427246, 0.732422, 1.525879
416456, 0.118652, 0.907837, -0.443237, 0.854492, 0.671387, 0.488281
416476, 0.103760, 0.904419, -0.456055, -0.427246, -1.586915, -2.624512
416496, 0.041016, 0.910034, -0.439575, -0.854492, -2.014160, -1.464844
416516, 0.046753, 0.914795, -0.423462, 0.122070, -0.122070, 1.586915
416536, 0.103638, 0.909790, -0.437378, 1.281738, 0.122070, 1.403809
416556, 0.109619, 0.905518, -0.452393, 0.732422, -0.793457, -1.098633
416576, 0.069336, 0.906738, -0.449219, -0.488281, -1.770020, -1.953125
416596, 0.041992, 0.913452, -0.429688, 0.122070, -0.854492, 0.305176
416616, 0.061035, 0.911865, -0.431030, 1.464844, 0.793457, 2.441406
416636, 0.129517, 0.901855, -0.459229, 0.610352, -0.671387, -0.366211
416656, 0.084961, 0.908569, -0.444336, -0.549316, -1.831055, -2.746582
416676, 0.036865, 0.911865, -0.435059, -0.305176, -0.915528, -0.793457
416696, 0.063232, 0.912842, -0.429810, 0.732422, 0.061035, 1.708985
416716, 0.103882, 0.908936, -0.438965, 1.159668, -0.244141, 0.915528
416736, 0.102539, 0.905884, -0.449829, 0.915528, -0.976563, -1.342773
416756, 0.065308, 0.906738, -0.450562, -0.122070, -1.403809, -1.708985
416776, 0.044800, 0.911865, -0.434692, -0.122070, -0.183106, 0.427246
416796, 0.078613, 0.911621, -0.429321, 0.793457, 0.366211, 1.708985
416816, 0.105469, 0.905762, -0.449829, 1.464844, -0.183106, -0.427246
416836, 0.097656, 0.905029, -0.455078, 0.061035, -1.220703, -2.441406
416856, 0.044556, 0.909912, -0.439209, -0.305176, -1.220703, -1.281738
416876, 0.057129, 0.911377, -0.435547, 0.244141, 0.061035, 1.098633
416896, 0.089966, 0.911011, -0.433594, 0.671387, 0.183106, 1.159668
416916, 0.102783, 0.907837, -0.441284, 1.098633, -0.427246, -0.549316
416936, 0.084595, 0.907227, -0.445923, 0.610352, -1.220703, -1.647950
416956, 0.058960, 0.909180, -0.442017, 0.366211, -1.098633, -0.854492
416976, 0.066772, 0.906738, -0.447632, 0.549316, 0.061035, 0.366211
416996, 0.073608, 0.912476, -0.431641, 1.037598, -0.122070, 1.037598
417016, 0.091187, 0.906128, -0.444458, 1.037598, -0.244141, 0.732422
417036, 0.093140, 0.908325, -0.439819, 0.976563, -0.671387, -0.366211
417056, 0.084839, 0.904297, -0.454834, 0.427246, -1.281738, -1.281738
417076, 0.062256, 0.907104, -0.444214, -0.122070, -1.037598, -0.793457
417096, 0.065308, 0.909058, -0.442017, -0.305176, -0.549316, 0.793457
417116, 0.095093, 0.909668, -0.437622, -0.183106, -0.549316, 0.244141
417136, 0.085205, 0.910034, -0.437256, 0.305176, -0.915528, -0.915528
417156, 0.054810, 0.911621, -0.431641, 0.732422, -0.610352, -0.061035
417176, 0.057373, 0.910278, -0.436646, 1.464844, 0.122070, 2.014160
417196, 0.126343, 0.901367, -0.460449, 0.610352, -0.549316, -0.549316
417216, 0.081055, 0.905884, -0.450195, -0.610352, -1.708985, -2.441406
417236, 0.041504, 0.911499, -0.433350, -0.610352, -1.281738, -0.488281
417256, 0.058350, 0.915649, -0.422241, 0.976563, 0.122070, 1.708985
417276, 0.082520, 0.910767, -0.430420, 2.136230, 0.610352, 2.075195
417296, 0.110596, 0.903687, -0.455933, 2.258301, 0.488281, 0.915528
417316, 0.115479, 0.898804, -0.473022, -0.427246, -1.464844, -2.258301
417336, 0.054443, 0.905884, -0.451050, -1.647950, -2.014160, -2.319336
417356, 0.038208, 0.915649, -0.422974, -1.647950, -0.427246, 0.915528
417376, 0.115601, 0.912109, -0.428833, 1.159668, -0.488281, 1.342773
417396, 0.114868, 0.905518, -0.451538, 1.342773, -1.525879, -1.220703
417416, 0.081543, 0.904175, -0.458618, 0.000000, -2.990724, -2.929688
417436, 0.029053, 0.908569, -0.444702, -0.854492, -2.075195, -0.549316
417456, 0.053345, 0.912720, -0.431152, -0.427246, 0.000000, 2.502441
417476, 0.112549, 0.912842, -0.424194, 0.854492, 0.183106, 1.647950
417496, 0.130371, 0.905151, -0.448120, 1.159668, -1.342773, -2.136230
417516, 0.071899, 0.904663, -0.454834, 0.244141, -2.624512, -3.784181
417536, 0.023926, 0.907104, -0.452515, -1.098633, -1.831055, -0.915528
417556, 0.046265, 0.916138, -0.415771, -0.183106, 0.427246, 2.624512
417576, 0.133545, 0.909790, -0.439575, 1.525879, 0.488281, 0.366211
417596, 0.101685, 0.904175, -0.452881, 0.488281, -1.403809, -3.356935
417616, 0.029663, 0.909790, -0.443604, 0.061035, -1.342773, -1.342773
417636, 0.045898, 0.912231, -0.435303, 0.305176, 0.122070, 1.892090
417656, 0.100830, 0.909790, -0.435181, 0.854492, 0.976563, 2.075195
417676, 0.120117, 0.906982, -0.445313, 0.915528, -0.610352, -1.098633
417696, 0.071411, 0.908936, -0.446045, 0.183106, -1.586915, -2.258301
417716, 0.039551, 0.911011, -0.431519, 0.610352, -1.342773, -0.061035
417736, 0.057739, 0.911743, -0.434937, 1.464844, 0.244141, 2.502441
417756, 0.122314, 0.903931, -0.454834, 0.549316, 0.183106, 0.183106
417776, 0.086060, 0.908081, -0.441528, -0.305176, -1.281738, -2.075195
417796, 0.044312, 0.912231, -0.432617, 0.366211, -0.549316, -0.610352
417816, 0.059692, 0.912598, -0.429565, 1.403809, 0.732422, 1.708985
417836, 0.101807, 0.904297, -0.450928, 1.220703, 0.549316, 1.159668
417856, 0.106323, 0.905029, -0.452026, 0.366211, -0.366211, -0.915528
417876, 0.081299, 0.907715, -0.443970, -0.244141, -1.037598, -2.319336
417896, 0.038940, 0.911865, -0.431885, 0.183106, -0.122070, -0.427246
417916, 0.053833, 0.912964, -0.428711, 1.220703, 1.342773, 2.502441
417936, 0.116089, 0.904785, -0.449463, 1.586915, 1.037598, 1.647950
417956, 0.093750, 0.905884, -0.450928, -0.122070, -1.831055, -2.746582
417976, 0.035034, 0.910278, -0.438110, -0.061035, -1.159668, -0.915528
417996, 0.061279, 0.910278, -0.436523, 0.427246, 0.549316, 1.953125
418016, 0.105713, 0.908569, -0.437378, 0.915528, 0.488281, 1.037598
418036, 0.111084, 0.906616, -0.445557, 0.610352, -0.671387, -1.464844
418056, 0.065674, 0.908447, -0.441772, 0.732422, -1.647950, -2.014160
418076, 0.050537, 0.907593, -0.446411, 0.305176, -0.732422, 0.061035
418096, 0.075928, 0.908081, -0.445435, 0.366211, 0.061035, 1.220703
418116, 0.094482, 0.910034, -0.433960, 0.427246, -0.427246, 0.671387
418136, 0.084473, 0.908569, -0.437866, 0.854492, -1.342773, -0.854492
418156, 0.087036, 0.903076, -0.457642, 0.549316, -1.159668, -1.037598
418176, 0.066284, 0.905396, -0.458618, -1.159668, -1.403809, -1.220703
418196, 0.062988, 0.911865, -0.434082, -1.342773, -0.610352, 0.305176
418216, 0.083740, 0.913574, -0.423340, -0.122070, -0.732422, 0.610352
418236, 0.106567, 0.910767, -0.431519, 1.220703, -1.220703, -0.915528
418256, 0.080200, 0.904175, -0.457764, 0.610352, -2.136230, -2.136230
418276, 0.052856, 0.907227, -0.448242, -0.488281, -1.525879, -0.793457
418296, 0.059570, 0.909790, -0.439453, -0.793457, -1.220703, 0.732422
418316, 0.072510, 0.917358, -0.417480, 0.671387, -0.915528, 1.953125
418336, 0.102173, 0.907715, -0.444702, 1.708985, -0.976563, 0.366211
418356, 0.093262, 0.903687, -0.458618, 0.488281, -1.770020, -1.892090
418376, 0.055420, 0.905640, -0.452759, -0.488281, -1.403809, -0.793457
418396, 0.060303, 0.911987, -0.435303, -0.915528, -0.671387, 0.610352
418416, 0.082275, 0.911011, -0.431519, 0.183106, 0.244141, 0.976563
418436, 0.093262, 0.908813, -0.440552, 0.366211, 0.061035, 0.000000
418456, 0.108398, 0.902344, -0.465820, -0.671387, 0.000000, -1.953125
418476, 0.089355, 0.907715, -0.449097, -2.319336, -1.220703, -3.723145
418496, 0.046143, 0.911743, -0.439087, -2.624512, -1.281738, -2.746582
418516, 0.068237, 0.915405, -0.420776, -0.488281, 0.366211, 0.488281
418536, 0.094971, 0.923340, -0.442993, 0.305176, 0.488281, -0.366211
418556, 0.098999, 0.905640, -0.453247, -0.732422, -0.732422, -2.319336
418576, 0.066162, 0.932983, -0.444214, -1.464844, -0.671387, -2.319336
418596, 0.068359, 0.894409, -0.428833, -1.464844, -1.098633, -1.281738
418616, 0.065308, 0.902588, -0.407593, -0.549316, -1.647950, -1.220703
418636, 0.049683, 0.907227, -0.404541, 1.831055, -1.220703, 0.427246
418656, 0.061401, 0.890869, -0.420288, 2.746582, -0.549316, 1.342773
418676, 0.062378, 0.913940, -0.437500, 3.112794, 0.183106, 2.136230
418696, 0.071533, 0.917358, -0.447632, 2.624512, 0.427246, 2.746582
418716, 0.118530, 0.915283, -0.459961, 1.831055, 0.610352, 0.244141
418736, 0.101929, 0.907349, -0.443481, 0.915528, -0.549316, -2.868653
418756, 0.034302, 0.911011, -0.450928, 0.427246, -1.281738, -1.953125
418776, 0.027100, 0.910889, -0.416382, 0.732422, 1.281738, 2.258301
418796, 0.101807, 0.918579, -0.429810, 2.990724, 2.502441, 3.051759
418816, 0.123169, 0.903564, -0.455322, 2.014160, 0.427246, -0.854492
418836, 0.070435, 0.905396, -0.457397, 1.037598, -0.732422, -1.831055
418856, 0.050171, 0.904541, -0.453247, -0.671387, 0.183106, 0.305176
418876, 0.075073, 0.913086, -0.432373, -0.610352, 0.610352, 1.464844
418896, 0.097168, 0.912720, -0.427002, 0.793457, 0.122070, 0.000000
418916, 0.075928, 0.911865, -0.436157, 1.464844, -0.915528, -0.732422
418936, 0.065918, 0.907959, -0.442261, 1.708985, -0.610352, 0.427246
418956, 0.096436, 0.904297, -0.459106, 0.854492, -0.671387, -0.183106
418976, 0.070313, 0.906372, -0.450928, -0.610352, -0.915528, -0.793457
418996, 0.064209, 0.910400, -0.435181, -0.549316, -0.549316, 0.244141
419016, 0.076416, 0.912720, -0.427856, 0.305176, -0.244141, 1.220703
419036, 0.108154, 0.906372, -0.444458, 0.671387, -0.610352, -0.183106
419056, 0.088501, 0.905762, -0.456665, -0.183106, -1.403809, -2.075195
419076, 0.052002, 0.907227, -0.445679, -1.464844, -1.220703, -1.281738
419096, 0.068848, 0.914795, -0.421875, -0.122070, 0.244141, 2.319336
419116, 0.112427, 0.908569, -0.437988, 0.549316, -0.793457, 0.732422
419136, 0.094727, 0.908447, -0.449829, 0.000000, -2.380371, -1.037598
419156, 0.066284, 0.907959, -0.441528, -0.793457, -3.662110, -0.793457
419176, 0.045898, 0.913086, -0.430054, -0.427246, -2.990724, 0.976563
419196, 0.057617, 0.915039, -0.424438, 0.732422, -1.403809, 3.112794
419216, 0.097900, 0.910034, -0.435303, 1.464844, -1.159668, 2.807618
419236, 0.105347, 0.906372, -0.451660, 0.915528, -2.075195, 0.671387
419256, 0.073853, 0.910767, -0.440186, 0.244141, -2.990724, -0.122070
419276, 0.061401, 0.910767, -0.436523, 0.671387, -1.770020, 2.380371
419296, 0.096680, 0.906372, -0.448608, 0.305176, -1.037598, 2.136230
419316, 0.110962, 0.905151, -0.451416, -0.732422, -1.831055, -0.244141
419336, 0.081177, 0.912598, -0.428589, -0.549316, -2.685547, -1.647950
419356, 0.039307, 0.911377, -0.436157, -0.183106, -1.220703, 0.122070
419376, 0.064697, 0.909424, -0.442505, 0.122070, 0.732422, 2.502441
419396, 0.117554, 0.909180, -0.437744, -0.549316, 1.342773, 1.342773
419416, 0.164307, 0.907837, -0.442505, -0.366211, -1.708985, -4.760742
419436, 0.079590, 0.909058, -0.440796, -0.854492, -0.549316, -7.263186
419456, 0.054077, 0.912476, -0.432007, -1.159668, -0.549316, -6.530764
419476, 0.057617, 0.914673, -0.423706, 1.464844, 1.708985, -2.624512
419496, 0.083130, 0.898804, -0.480103, 0.000000, -1.892090, -2.502441
419516, 0.059692, 0.893555, -0.496826, -4.638672, -2.441406, -1.708985
419536, 0.078247, 0.898682, -0.486328, -10.314941, -2.319336, -1.525879
419556, 0.054443, 0.922729, -0.408203, -10.742188, -4.638672, -0.915528
419576, 0.046753, 0.931641, -0.369385, -7.385256, -5.004883, 1.525879
419596, 0.066772, 0.938721, -0.367310, -2.136230, -4.455566, 2.319336
419616, 0.038574, 0.919556, -0.395020, 1.770020, -6.469728, 3.906251
419636, 0.049316, 0.923462, -0.418701, 2.868653, -2.075195, 5.615236
419656, 0.117432, 0.906006, -0.451538, 0.854492, 1.098633, 4.028320
419676, 0.124756, 0.916504, -0.431641, -0.061035, -1.403809, 0.061035
419696, 0.053101, 0.914429, -0.426514, -0.671387, -4.577637, -0.610352
419716, 0.040894, 0.917114, -0.432129, -0.732422, -0.793457, 2.380371
419736, 0.114380, 0.914551, -0.428833, -1.525879, -2.014160, 1.281738
419756, 0.049438, 0.926270, -0.397949, -0.244141, -2.929688, 0.915528
419776, 0.021606, 0.930420, -0.376831, 2.990724, -2.563477, 4.943848
419796, 0.063354, 0.922852, -0.402588, 6.530764, -2.075195, 7.751467
419816, 0.119019, 0.903931, -0.457520, 6.042482, 1.342773, 5.920412
419836, 0.173706, 0.904785, -0.472290, 2.624512, 3.112794, -0.793457
419856, 0.076538, 0.914917, -0.426514, -1.220703, 0.305176, -8.422852
419876, -0.023071, 0.925537, -0.408691, 0.610352, 1.586915, -2.685547
419896, 0.029541, 0.917847, -0.409180, 2.624512, 2.685547, 4.089355
419916, 0.129761, 0.901001, -0.475220, 1.647950, 2.075195, 3.906251
419936, 0.178711, 0.897217, -0.472534, -3.540040, 1.403809, -3.173829
419956, 0.074707, 0.920044, -0.420410, -4.516602, -2.136230, -6.835939
419976, 0.007690, 0.926025, -0.389771, -2.319336, 0.305176, -2.502441
419996, 0.038818, 0.923218, -0.403442, 0.854492, 1.098633, 2.014160
420016, 0.075684, 0.913940, -0.433838, 0.915528, 1.586915, 3.540040
420036, 0.131470, 0.919678, -0.410767, 0.915528, 1.403809, -1.037598
420056, 0.074585, 0.913696, -0.433350, 1.403809, -0.549316, -2.319336
420076, 0.056030, 0.912842, -0.437500, 0.732422, 0.488281, -0.610352
420096, 0.094482, 0.912842, -0.436279, -0.366211, 0.732422, -0.244141
420116, 0.103394, 0.917847, -0.412231, -0.488281, -0.671387, -2.136230
420136, 0.016235, 0.929443, -0.389282, 2.441406, -2.929688, -0.427246
420156, -0.008911, 0.921021, -0.411621, 4.760742, -0.610352, 7.080080
420176, 0.108887, 0.904907, -0.456421, 4.455566, 1.342773, 9.460449
420196, 0.199707, 0.894287, -0.485718, -0.244141, 0.366211, 2.624512
420216, 0.168335, 0.904907, -0.452759, -3.601075, -2.990724, -6.042482
420236, 0.028198, 0.923218, -0.401978, -3.234864, -3.601075, -6.042482
420256, 0.011841, 0.921631, -0.409180, -1.464844, -1.281738, -0.610352
420276, 0.054321, 0.917603, -0.423218, -0.427246, -0.488281, 2.929688
420296, 0.093506, 0.913696, -0.436768, -1.159668, -0.244141, 3.051759
420316, 0.104736, 0.911133, -0.440674, -2.502441, -0.366211, 1.403809
420336, 0.106934, 0.915039, -0.427979, -3.295899, -0.244141, -0.671387
420356, 0.122681, 0.908691, -0.448120, -4.699707, 1.281738, -3.662110
420376, 0.117188, 0.920044, -0.410767, -5.981447, 0.061035, -7.812502
420396, 0.064087, 0.931519, -0.379395, -3.356935, -3.845216, -8.300781
420416, -0.011597, 0.925659, -0.403564, 1.892090, -3.173829, 1.892090
420436, 0.067505, 0.909668, -0.449951, 0.122070, -1.159668, 5.310059
420456, 0.130859, 0.912720, -0.447144, -1.831055, -2.380371, 2.868653
420476, 0.134033, 0.915283, -0.428833, -4.882813, -1.953125, -2.319336
420496, 0.092651, 0.925293, -0.397949, -3.662110, -2.319336, -5.371094
420516, 0.049927, 0.926147, -0.404175, -2.807618, -3.479005, -4.882813
420536, 0.004272, 0.927246, -0.401611, -2.197266, -2.868653, -0.427246
420556, 0.041504, 0.931152, -0.384888, 0.000000, -1.770020, 4.211426
420576, 0.114136, 0.919189, -0.423340, 0.122070, -0.854492, 2.868653
420596, 0.121948, 0.920166, -0.421875, -0.610352, -1.586915, -1.586915
420616, 0.036133, 0.925171, -0.410767, -2.075195, -2.258301, -0.976563
420636, 0.068726, 0.924438, -0.407349, -2.197266, -1.037598, 0.549316
420656, 0.106323, 0.926147, -0.403198, -1.281738, -1.220703, -0.854492
420676, 0.094360, 0.922852, -0.416138, -1.953125, -2.746582, -3.662110
420696, 0.047729, 0.924438, -0.413330, -2.380371, -2.380371, -3.112794
420716, 0.041016, 0.925903, -0.409424, -2.929688, -0.976563, -1.098633
420736, 0.055908, 0.928711, -0.398315, -2.624512, 0.488281, 0.366211
420756, 0.068481, 0.927734, -0.401978, -1.831055, 1.159668, 0.610352
420776, 0.078491, 0.929688, -0.392212, -1.831055, 0.854492, 0.427246
420796, 0.099121, 0.926514, -0.401978, -1.403809, 0.305176, -2.014160
420816, 0.076660, 0.925293, -0.416382, -1.708985, -0.671387, -3.540040
420836, 0.062622, 0.914673, -0.452881, -5.615236, -0.854492, -3.051759
420856, 0.073364, 0.931885, -0.388672, -6.469728, -1.586915, -3.051759
420876, 0.080200, 0.934082, -0.384521, -6.042482, -2.746582, -3.601075
420896, 0.076172, 0.936523, -0.376099, -4.455566, -2.929688, -5.004883
420916, 0.033203, 0.939575, -0.366577, -2.685547, -4.028320, -4.028320
420936, 0.014893, 0.938599, -0.371338, -0.915528, -3.295899, -0.671387
420956, 0.040283, 0.936523, -0.378784, 0.244141, -1.098633, 1.831055
420976, 0.080811, 0.937622, -0.373291, 1.831055, 1.342773, 1.037598
420996, 0.054932, 0.933350, -0.391724, 1.586915, 1.464844, -1.281738
421016, 0.038574, 0.929321, -0.401978, 1.464844, 2.319336, 0.183106
421036, 0.056152, 0.937378, -0.376587, 1.525879, 4.211426, 1.159668
421056, 0.068359, 0.932617, -0.384521, 2.807618, 6.591799, 0.122070
421076, 0.082764, 0.928101, -0.400879, 2.746582, 7.751467, -0.793457
421096, 0.083862, 0.926880, -0.410522, 1.342773, 2.563477, -1.708985
421116, 0.047607, 0.928223, -0.404541, 0.366211, -1.220703, -0.488281
421136, 0.059692, 0.930664, -0.394287, -0.366211, -1.464844, 0.854492
421156, 0.071289, 0.935059, -0.378296, 0.610352, -1.892090, 0.305176
421176, 0.069214, 0.933228, -0.385620, 2.807618, -0.915528, 0.366211
421196, 0.097290, 0.921143, -0.426514, 1.525879, -1.647950, -1.464844
421216, 0.083252, 0.925415, -0.412720, -1.037598, -4.150391, -3.540040
421236, 0.029053, 0.932373, -0.392578, -1.525879, -6.896975, -2.014160
421256, 0.020752, 0.936035, -0.378418, -0.427246, -7.385256, 1.831055
421276, 0.056885, 0.930542, -0.399536, -0.122070, -4.821777, 2.868653
421296, 0.068970, 0.927490, -0.407104, -0.854492, -2.319336, 1.831055
421316, 0.069580, 0.931763, -0.391479, -1.953125, -0.976563, 0.732422
421336, 0.054932, 0.940674, -0.364014, -0.244141, -2.441406, 0.793457
421356, 0.051270, 0.935059, -0.384399, 1.464844, -2.197266, 1.708985
421376, 0.038696, 0.937500, -0.374634, 3.051759, 1.220703, 3.112794
421396, 0.044556, 0.942627, -0.362793, 4.882813, 2.868653, 4.577637
421416, 0.044800, 0.933350, -0.382324, 7.446291, 6.469728, 5.798342
421436, 0.098389, 0.920898, -0.424316, 6.530764, 6.225588, 5.676271
421456, 0.141235, 0.916382, -0.436157, 3.356935, 1.892090, 1.953125
421476, 0.113037, 0.922974, -0.415039, 1.098633, -1.831055, -1.953125
421496, 0.058838, 0.935913, -0.372559, 1.708985, -4.455566, -2.563477
421516, 0.027466, 0.937256, -0.371826, 4.943848, -1.647950, -0.122070
421536, 0.044800, 0.928955, -0.394409, 6.408693, 2.014160, 1.770020
421556, 0.117432, 0.916138, -0.437866, 4.577637, 2.746582, 0.305176
421576, 0.086548, 0.916260, -0.433838, 1.953125, 0.244141, -1.525879
421596, 0.070435, 0.919922, -0.426636, 0.061035, 2.746582, -2.136230
421616, 0.103271, 0.917969, -0.428345, -1.342773, 3.723145, -4.089355
421636, 0.057373, 0.923218, -0.416504, -3.112794, 1.464844, -4.638672
421656, 0.042847, 0.928345, -0.396851, -2.990724, -2.929688, -0.793457
421676, 0.048340, 0.927856, -0.401001, -2.380371, -4.150391, 1.525879
421696, 0.087158, 0.925171, -0.403809, -2.441406, -2.929688, 1.403809
421716, 0.104248, 0.927124, -0.404663, -2.563477, -4.638672, -1.159668
421736, 0.050903, 0.925659, -0.409302, -2.929688, -5.432129, -1.586915
421756, 0.102905, 0.913940, -0.447144, -7.385256, -6.958010, 0.305176
421776, 0.087158, 0.922607, -0.423218, -10.925293, -10.925293, -2.441406
421796, 0.002686, 0.944824, -0.348633, -10.192871, -12.817387, 0.671387
421816, 0.049072, 0.947998, -0.338257, -5.249023, -11.474613, 4.272461
421836, 0.083862, 0.949463, -0.330933, -1.281738, -11.901859, 3.173829
421856, 0.024780, 0.951782, -0.322388, 4.272461, -6.835939, 2.319336
421876, 0.037598, 0.942871, -0.354492, 8.117676, -2.197266, 4.394531
421896, 0.020386, 0.946167, -0.340698, 12.146000, 0.915528, 6.164553
421916, 0.031006, 0.926636, -0.405151, 14.160160, 3.784181, 9.643555
421936, 0.145020, 0.906738, -0.468628, 8.544922, 7.324221, 6.896975
421956, 0.168945, 0.917969, -0.427612, 4.394531, 5.004883, -0.671387
421976, 0.107056, 0.928589, -0.388428, 4.821777, 4.150391, -5.310059
421996, 0.085205, 0.927002, -0.396729, 6.530764, 4.516602, -6.530764
422016, 0.080444, 0.921997, -0.415527, 6.591799, 5.187988, -7.263186
422036, 0.071045, 0.910156, -0.455933, 4.516602, 3.723145, -7.507326
422056, 0.028809, 0.913818, -0.443970, 0.671387, -0.610352, -4.577637
422076, -0.016846, 0.920776, -0.422729, -0.549316, -3.479005, 2.380371
422096, 0.050415, 0.920532, -0.420044, -1.037598, -1.586915, 6.896975
422116, 0.144287, 0.912476, -0.443726, -2.685547, -2.319336, 0.427246
422136, 0.117676, 0.916626, -0.429199, -6.469728, -4.821777, -5.615236
422156, -0.000366, 0.914429, -0.448120, -9.826660, -9.582520, -2.685547
422176, 0.023071, 0.934570, -0.384521, -10.437012, -12.756351, 4.089355
422196, 0.075684, 0.934814, -0.372437, -8.850098, -11.596684, 4.516602
422216, 0.064087, 0.965210, -0.271484, -1.403809, -6.042482, 3.417970
422236, 0.142212, 0.938843, -0.358032, 6.530764, -0.549316, -1.464844
422256, 0.072021, 0.911621, -0.458984, 4.760742, -2.319336, -5.554201
422276, -0.002075, 0.913574, -0.454468, -1.220703, -1.220703, -1.708985
422296, 0.030273, 0.928223, -0.407227, -2.868653, -0.732422, 2.990724
422316, 0.144775, 0.930908, -0.390747, -1.586915, -1.464844, -0.244141
422336, 0.133911, 0.927124, -0.406494, -2.624512, -1.586915, -7.141115
422356, 0.039917, 0.934448, -0.381836, -2.197266, -4.455566, -8.544922
422376, -0.017456, 0.942993, -0.351807, 0.427246, -4.760742, -3.417970
422396, -0.008301, 0.940796, -0.358276, 4.272461, -3.601075, 2.929688
422416, 0.052246, 0.929565, -0.394775, 6.225588, -2.441406, 5.615236
422436, 0.102539, 0.911743, -0.458252, 3.356935, 0.976563, 2.929688
422456, 0.094360, 0.918945, -0.438599, -1.281738, 1.647950, -0.610352
422476, 0.061523, 0.930420, -0.391846, -2.197266, -1.037598, -1.464844
422496, 0.038696, 0.933594, -0.386963, -0.549316, -3.417970, 1.525879
422516, 0.038330, 0.931274, -0.394287, -1.281738, -2.502441, 3.295899
422536, 0.044800, 0.938110, -0.367920, 0.427246, 1.159668, 4.150391
422556, 0.049561, 0.939331, -0.363159, 3.417970, 3.295899, 5.004883
422576, 0.043823, 0.938232, -0.361694, 6.530764, 5.065918, 6.164553
422596, 0.090820, 0.922974, -0.409668, 8.178711, 5.615236, 7.263186
422616, 0.185303, 0.902954, -0.484009, 3.723145, 3.479005, 1.220703
422636, 0.139893, 0.915527, -0.441772, -2.258301, 0.244141, -6.713869
422656, 0.038452, 0.933350, -0.388550, -2.136230, -2.380371, -6.713869
422676, 0.006348, 0.937134, -0.368164, 0.061035, -3.601075, -1.647950
422696, 0.068604, 0.925293, -0.407471, 2.197266, -0.610352, 1.831055
422716, 0.093384, 0.923706, -0.411499, 1.831055, 0.854492, 0.305176
422736, 0.079590, 0.923584, -0.414673, 0.732422, 0.793457, -1.403809
422756, 0.060303, 0.927612, -0.398560, 0.671387, 0.244141, -1.159668
422776, 0.079712, 0.924072, -0.415405, 0.793457, -0.732422, -0.732422
422796, 0.093750, 0.921265, -0.422607, -1.037598, -2.136230, -2.380371
422816, 0.075195, 0.927734, -0.404663, -1.647950, -1.525879, -4.028320
422836, 0.044189, 0.935547, -0.373535, -0.488281, -0.854492, -3.295899
422856, 0.030029, 0.934570, -0.376709, 2.441406, 0.610352, -0.915528
422876, 0.054321, 0.924316, -0.413574, 2.197266, 1.831055, 0.976563
422896, 0.073486, 0.923096, -0.419800, 0.000000, 1.831055, 0.122070
422916, 0.058228, 0.930298, -0.388794, 0.183106, 1.220703, 0.488281
422936, 0.053345, 0.935791, -0.372681, 2.624512, 1.770020, 1.342773
422956, 0.081909, 0.926025, -0.405029, 4.333496, 1.281738, 1.586915
422976, 0.086670, 0.916138, -0.432495, 2.502441, 0.671387, 0.000000
422996, 0.080200, 0.921875, -0.429688, 0.671387, 0.671387, -0.854492
423016, 0.072998, 0.922119, -0.418701, -1.220703, -0.122070, -1.708985
423036, 0.060181, 0.934937, -0.380249, 0.061035, -1.281738, -0.915528
423056, 0.071289, 0.925293, -0.401978, 1.525879, -1.281738, -0.793457
423076, 0.048950, 0.925049, -0.406494, 1.159668, -0.732422, 0.366211
423096, 0.076904, 0.923218, -0.413696, 1.037598, 0.244141, 0.671387
423116, 0.092896, 0.924194, -0.411987, 0.122070, -0.427246, -1.098633
423136, 0.076904, 0.925049, -0.404907, 0.488281, -1.159668, -2.319336
423156, 0.069580, 0.926758, -0.406250, 0.244141, -1.647950, -2.624512
423176, 0.050293, 0.921631, -0.417969, -0.061035, -2.319336, -1.831055
423196, 0.045410, 0.927734, -0.399536, -0.122070, -1.770020, -0.549316
423216, 0.054443, 0.925903, -0.405273, 0.366211, -0.671387, 0.732422
423236, 0.068848, 0.927124, -0.401123, 0.610352, -0.061035, 0.671387
423256, 0.075684, 0.925049, -0.378174, 0.610352, -0.244141, -0.366211
423276, 0.079224, 0.924805, -0.407593, 0.976563, -1.098633, -1.831055
423296, 0.055298, 0.929321, -0.396118, 1.464844, -1.525879, -1.708985
423316, 0.042603, 0.924316, -0.412720, 1.647950, -1.403809, -0.366211
423336, 0.046509, 0.925903, -0.404907, 1.708985, -0.671387, 1.281738
423356, 0.045288, 0.922729, -0.419189, 1.098633, -0.549316, 2.441406
423376, 0.052368, 0.928223, -0.397217, 1.464844, 1.953125, 3.723145
423396, 0.106934, 0.923950, -0.411377, 2.014160, 1.770020, 2.502441
423416, 0.097412, 0.922607, -0.414429, 1.403809, -0.183106, -0.732422
423436, 0.057739, 0.921509, -0.416992, 1.037598, -1.342773, -0.915528
423456, 0.061768, 0.921265, -0.417603, -0.122070, -1.159668, 1.037598
423476, 0.071899, 0.922974, -0.414063, -0.610352, -0.793457, 0.610352
423496, 0.066406, 0.924316, -0.409424, -0.732422, 0.061035, 0.427246
423516, 0.067627, 0.925293, -0.407715, -0.732422, 0.549316, 0.549316
423536, 0.073120, 0.928467, -0.395264, -0.122070, -0.122070, 0.427246
423556, 0.071655, 0.926758, -0.403076, 0.976563, -1.159668, 0.549316
423576, 0.081665, 0.919434, -0.427856, 0.061035, -1.647950, -0.122070
423596, 0.078613, 0.922119, -0.417603, -1.281738, -1.647950, -1.159668
423616, 0.054810, 0.926147, -0.397705, -1.342773, -1.342773, -0.915528
423636, 0.045898, 0.929321, -0.403931, 0.427246, 0.000000, 1.098633
423656, 0.079102, 0.922974, -0.418823, 0.061035, 0.305176, 1.220703
423676, 0.078369, 0.926514, -0.406372, -0.732422, -0.061035, 0.305176
423696, 0.065430, 0.930786, -0.389404, 0.244141, -0.427246, 0.122070
423716, 0.061401, 0.929932, -0.392944, 1.892090, -0.061035, 0.793457
423736, 0.075439, 0.921021, -0.420410, 1.770020, 0.000000, 0.793457
423756, 0.084229, 0.919556, -0.426147, 0.244141, 0.427246, -0.244141
423776, 0.076782, 0.924072, -0.411255, -0.915528, 0.488281, -1.342773
423796, 0.057129, 0.930542, -0.387573, 0.183106, 0.122070, -0.732422
423816, 0.060913, 0.926758, -0.399414, 1.159668, -0.305176, 0.488281
423836, 0.094482, 0.919312, -0.422974, 0.793457, -0.427246, -1.403809
423856, 0.060791, 0.925537, -0.407349, -0.122070, -0.854492, -1.892090
423876, 0.051270, 0.928223, -0.396606, 0.549316, -0.915528, -0.488281
423896, 0.062500, 0.926758, -0.398315, 1.586915, -0.854492, 0.610352
423916, 0.085205, 0.919678, -0.425781, 1.037598, -0.793457, 0.061035
423936, 0.081543, 0.921265, -0.418335, -0.366211, -1.220703, -1.159668
423956, 0.065063, 0.926270, -0.401978, -0.732422, -1.037598, -1.647950
423976, 0.055786, 0.930420, -0.388794, 0.732422, -0.915528, -0.793457
423996, 0.057861, 0.925415, -0.406982, 1.403809, -0.976563, 0.366211
424016, 0.087769, 0.918457, -0.428711, 0.122070, -0.915528, -0.305176
424036, 0.074219, 0.924316, -0.412598, -1.403809, -1.770020, -1.831055
424056, 0.043579, 0.930786, -0.388428, -0.305176, -1.770020, -0.732422
424076, 0.054443, 0.928589, -0.398315, 0.915528, -1.708985, 0.854492
424096, 0.074707, 0.922852, -0.416748, 0.976563, -1.403809, 1.098633
424116, 0.084106, 0.919678, -0.424683, -0.732422, -1.586915, -0.244141
424136, 0.064697, 0.928345, -0.399536, -1.037598, -1.464844, -0.976563
424156, 0.067505, 0.927856, -0.398438, -0.183106, -1.220703, -0.976563
424176, 0.060669, 0.927490, -0.396606, 0.549316, -1.464844, -0.793457
424196, 0.047974, 0.925903, -0.408813, 0.915528, -1.220703, 0.244141
424216, 0.072876, 0.924438, -0.411133, 0.244141, 0.061035, 0.610352
424236, 0.073120, 0.927246, -0.402832, 0.305176, -0.244141, 0.061035
424256, 0.068481, 0.926147, -0.407349, 0.427246, -0.793457, -0.244141
424276, 0.064087, 0.925781, -0.406006, 0.366211, -1.220703, 0.061035
424296, 0.067261, 0.923218, -0.415527, 0.061035, -0.976563, -0.061035
424316, 0.065186, 0.926025, -0.406860, -0.732422, -0.671387, 0.000000
424336, 0.063354, 0.929932, -0.391846, 0.061035, -0.427246, -0.061035
424356, 0.060181, 0.930176, -0.392822, 1.220703, 0.061035, 0.427246
424376, 0.072876, 0.926514, -0.403198, 1.892090, 0.244141, 0.488281
424396, 0.079224, 0.920776, -0.425659, 0.427246, -0.976563, -1.098633
424416, 0.052856, 0.924316, -0.411255, -0.854492, -1.403809, -0.976563
424436, 0.046875, 0.930054, -0.392944, -0.183106, -0.427246, 0.610352
424456, 0.071045, 0.929321, -0.388428, 1.281738, -0.183106, 1.220703
424476, 0.083008, 0.926025, -0.406616, 2.136230, 0.305176, 0.000000
424496, 0.075806, 0.920532, -0.422852, 1.037598, -0.122070, -1.037598
424516, 0.064575, 0.923462, -0.414307, 0.000000, -0.793457, -0.976563
424536, 0.059204, 0.927002, -0.402100, -0.061035, -1.281738, -0.366211
424556, 0.064819, 0.927124, -0.400879, 0.549316, -1.403809, 0.000000
424576, 0.063965, 0.925171, -0.410645, 0.549316, -1.037598, 0.122070
424596, 0.071655, 0.923828, -0.411743, -0.183106, -0.732422, -0.854492
424616, 0.043213, 0.931274, -0.389404, 0.305176, -0.854492, 0.061035
424636, 0.059326, 0.927612, -0.401855, 1.708985, -0.549316, 1.647950
424656, 0.078857, 0.920654, -0.422974, 0.549316, -0.183106, 0.976563
424676, 0.066650, 0.924194, -0.411011, -0.183106, -0.183106, 0.305176
424696, 0.077759, 0.923706, -0.410278, -0.610352, 0.183106, 0.183106
424716, 0.077148, 0.926270, -0.403198, -0.549316, -0.610352, -0.976563
424736, 0.069214, 0.925903, -0.405640, -0.488281, -1.098633, -1.159668
424756, 0.068481, 0.926147, -0.405884, -0.610352, -1.464844, -1.220703
424776, 0.044678, 0.930298, -0.390747, 0.122070, -1.403809, -0.427246
424796, 0.039429, 0.931641, -0.381348, 2.014160, -0.244141, 1.708985
424816, 0.076660, 0.925903, -0.408325, 2.807618, 0.915528, 2.075195
424836, 0.089355, 0.922363, -0.418335, 2.136230, 0.244141, 0.488281
424856, 0.073120, 0.920044, -0.427734, 0.488281, -0.915528, -0.610352
424876, 0.051880, 0.925537, -0.408203, -0.305176, -1.831055, 0.305176
424896, 0.050659, 0.927612, -0.397217, 0.061035, -2.197266, 1.892090
424916, 0.063721, 0.928711, -0.398682, 1.098633, -1.037598, 2.441406
424936, 0.068970, 0.925903, -0.403442, 1.403809, 0.244141, 2.319336
424956, 0.079224, 0.922363, -0.416504, 1.098633, 1.037598, 1.525879
424976, 0.080933, 0.925781, -0.405762, 0.488281, 0.244141, 0.549316
424996, 0.076904, 0.924927, -0.406860, 0.732422, -1.098633, 0.122070
425016, 0.073730, 0.922485, -0.414673, 0.366211, -1.525879, -0.061035
425036, 0.073975, 0.923340, -0.413208, -0.305176, -1.220703, -0.366211
425056, 0.077026, 0.926758, -0.402100, -0.183106, -0.793457, -0.915528
425076, 0.069702, 0.925537, -0.408936, -0.122070, -0.671387, -1.342773
425096, 0.051636, 0.929321, -0.394531, 0.305176, -0.427246, -0.366211
425116, 0.061157, 0.926636, -0.405518, 1.098633, -0.122070, 0.793457
425136, 0.068726, 0.926880, -0.401733, 1.342773, 0.122070, 1.037598
425156, 0.079712, 0.921997, -0.419067, 0.549316, 0.366211, 0.488281
425176, 0.084839, 0.923584, -0.411621, 0.183106, 0.183106, -0.183106
425196, 0.082764, 0.925171, -0.412109, -0.610352, -0.671387, -1.464844
425216, 0.053711, 0.930298, -0.388794, 0.183106, -0.976563, -0.976563
425236, 0.050293, 0.927368, -0.395874, 1.464844, -0.854492, 0.671387
425256, 0.059204, 0.924072, -0.405884, 1.953125, -0.305176, 1.892090
425276, 0.068359, 0.923340, -0.415771, 1.464844, 0.915528, 2.441406
425296, 0.089722, 0.922119, -0.414307, 0.671387, 0.488281, 1.708985
425316, 0.106567, 0.923340, -0.413086, 0.488281, -0.488281, -0.122070
425336, 0.085815, 0.925537, -0.403076, -0.061035, -2.197266, -2.075195
425356, 0.052490, 0.922485, -0.410156, 0.549316, -1.464844, -1.098633
425376, 0.062134, 0.923340, -0.411865, 0.793457, -0.366211, 0.183106
425396, 0.072388, 0.922607, -0.413452, -0.183106, -0.244141, 0.305176
425416, 0.081055, 0.927246, -0.397949, 0.427246, -0.183106, -0.061035
425436, 0.078857, 0.925537, -0.406982, 0.732422, -0.854492, -0.976563
425457, 0.059204, 0.924072, -0.409790, 0.793457, -0.793457, -0.427246
425477, 0.061401, 0.924072, -0.410400, 0.427246, -0.488281, 0.610352
425497, 0.068481, 0.924316, -0.407349, 0.427246, 0.366211, 0.976563
425517, 0.077393, 0.924316, -0.408691, 0.427246, 0.305176, 0.366211
425537, 0.083862, 0.923096, -0.409302, 0.427246, -0.305176, 0.061035
425557, 0.091064, 0.921875, -0.419067, -0.366211, -1.403809, -1.403809
425577, 0.059570, 0.925903, -0.402222, -0.366211, -2.014160, -1.403809
425597, 0.057617, 0.927124, -0.401245, 0.122070, -1.342773, -0.183106
425617, 0.074707, 0.926392, -0.401367, 0.732422, -0.854492, 0.061035
425637, 0.072510, 0.927490, -0.400635, 1.159668, -0.549316, -0.488281
425657, 0.071899, 0.923828, -0.410156, 1.647950, 0.000000, -0.427246
425677, 0.081055, 0.919800, -0.424438, 0.427246, -0.610352, -0.915528
425697, 0.062622, 0.925537, -0.407593, -0.061035, -1.037598, -0.976563
425717, 0.054565, 0.929565, -0.389282, 1.220703, -0.793457, 0.793457
425737, 0.074707, 0.924683, -0.408691, 2.197266, -0.061035, 1.220703
425757, 0.090088, 0.919434, -0.421997, 1.281738, -0.122070, 0.061035
425777, 0.097046, 0.917725, -0.432739, -0.183106, -0.671387, -1.831055
425797, 0.068481, 0.923706, -0.412964, -1.770020, -2.136230, -2.685547
425817, 0.053345, 0.929443, -0.394287, -0.793457, -2.197266, -1.586915
425837, 0.053101, 0.928833, -0.395264, 0.244141, -1.892090, -0.244141
425857, 0.056519, 0.927490, -0.402466, 1.159668, -0.549316, 0.610352
425877, 0.061523, 0.924438, -0.410156, 1.037598, 0.244141, 1.281738
425897, 0.078613, 0.922729, -0.411987, 0.671387, 0.183106, 1.342773
425917, 0.083130, 0.924683, -0.408447, 0.610352, -0.427246, 0.671387
425937, 0.089478, 0.921997, -0.416748, 0.122070, -1.159668, -0.854492
425957, 0.060669, 0.926880, -0.401123, -0.061035, -1.525879, -1.037598
425977, 0.061401, 0.927490, -0.401733, 0.732422, -0.732422, -0.305176
425997, 0.066406, 0.924683, -0.404419, 1.159668, -0.427246, 0.183106
426017, 0.077393, 0.920288, -0.421631, 0.610352, -0.183106, -0.244141
426037, 0.070435, 0.923950, -0.409790, -0.122070, -0.610352, -0.610352
426057, 0.071777, 0.924805, -0.412354, -0.427246, -0.793457, -0.732422
426077, 0.056641, 0.928467, -0.395508, 0.061035, -1.159668, -0.183106
426097, 0.067627, 0.925293, -0.403809, 1.037598, -0.244141, 1.159668
426117, 0.087769, 0.921387, -0.420166, 0.610352, 0.183106, 0.122070
426137, 0.077271, 0.923218, -0.411011, 0.061035, -0.122070, -0.976563
426157, 0.058838, 0.924438, -0.411133, -0.366211, -0.793457, -0.488281
426177, 0.056152, 0.925049, -0.410522, -0.427246, -0.915528, 0.671387
426197, 0.062744, 0.923950, -0.409302, -0.793457, -0.488281, 1.464844
426217, 0.064331, 0.925537, -0.405396, -0.671387, 0.183106, 2.014160
426237, 0.082764, 0.926025, -0.403198, -0.732422, 0.610352, 1.647950
426257, 0.084351, 0.927246, -0.396362, 0.061035, 0.183106, 0.610352
426277, 0.069458, 0.927002, -0.400635, 0.915528, -0.610352, 0.244141
426297, 0.084839, 0.923950, -0.407715, 1.098633, -0.183106, -0.488281
426317, 0.071045, 0.925171, -0.404785, 1.037598, -0.427246, -1.037598
426337, 0.066406, 0.926636, -0.402222, 1.342773, -0.244141, -0.610352
426357, 0.067383, 0.925415, -0.405151, 1.770020, -0.244141, -0.183106
426377, 0.082520, 0.920654, -0.422974, 1.037598, 0.061035, -0.488281
426397, 0.082275, 0.919800, -0.420776, -0.610352, -0.488281, -1.586915
426417, 0.060547, 0.928467, -0.397095, -0.366211, -1.159668, -1.220703
426437, 0.052612, 0.927979, -0.395630, 0.610352, -0.671387, 0.122070
426457, 0.068115, 0.927612, -0.400757, 1.403809, 0.061035, 1.037598
426477, 0.085327, 0.921997, -0.412842, 1.220703, 0.244141, -0.488281
426497, 0.074463, 0.924805, -0.410645, 0.732422, -0.305176, -0.915528
426517, 0.062866, 0.923096, -0.409180, 0.610352, -1.037598, -0.366211
426537, 0.062622, 0.924683, -0.410645, 0.366211, -1.098633, 0.427246
426557, 0.069580, 0.921875, -0.413940, -0.061035, -0.610352, 0.915528
426577, 0.083618, 0.921997, -0.417847, -0.854492, -0.305176, 0.244141
426597, 0.074707, 0.925659, -0.403320, -1.281738, -0.427246, -0.305176
426617, 0.078003, 0.927612, -0.399170, -0.549316, -0.671387, -0.488281
426637, 0.067993, 0.930420, -0.391113, 0.427246, -1.037598, -0.549316
426657, 0.063843, 0.924194, -0.407959, 1.037598, -1.159668, 0.183106
426677, 0.071777, 0.924316, -0.409302, 1.098633, -0.488281, 0.610352
426697, 0.079834, 0.921021, -0.417847, 0.183106, -0.183106, -0.061035
426717, 0.074341, 0.927734, -0.397949, 0.183106, -0.610352, -0.366211
426737, 0.075439, 0.923706, -0.411499, 0.244141, -0.732422, -0.671387
426757, 0.066284, 0.927490, -0.398071, 0.671387, -0.793457, -0.549316
426777, 0.064331, 0.926025, -0.406738, 0.854492, -0.549316, -0.122070
426797, 0.062134, 0.925049, -0.405762, 1.037598, 0.000000, 0.549316
426817, 0.073853, 0.924561, -0.410400, 0.732422, 0.732422, 0.732422
426837, 0.089355, 0.923584, -0.409424, 0.610352, 0.366211, -0.244141
426857, 0.068848, 0.926025, -0.402344, 0.610352, -0.549316, -0.305176
426877, 0.064209, 0.926147, -0.395142, 1.159668, -0.061035, -0.122070
426897, 0.093262, 0.920654, -0.416138, 1.647950, 0.366211, -0.671387
426917, 0.088013, 0.920410, -0.423584, -0.183106, -0.488281, -2.563477
426937, 0.054688, 0.927612, -0.401123, -0.183106, -0.854492, -2.197266
426957, 0.050171, 0.927002, -0.399780, 0.427246, -0.793457, -0.488281
426977, 0.061035, 0.927002, -0.400879, 0.976563, -0.366211, 0.610352
426997, 0.079956, 0.925049, -0.406128, 1.464844, -0.427246, 0.549316
427017, 0.088379, 0.919067, -0.429077, 0.366211, -0.610352, -0.671387
427037, 0.076904, 0.925781, -0.405518, -0.549316, -1.586915, -1.892090
427057, 0.051270, 0.931641, -0.387451, 0.183106, -2.319336, -1.525879
427077, 0.024658, 0.930786, -0.390015, 2.319336, -1.281738, 1.342773
427097, 0.051636, 0.920410, -0.421997, 2.380371, 0.183106, 3.784181
427117, 0.092896, 0.916504, -0.434692, 0.122070, 1.220703, 3.601075
427137, 0.134033, 0.914795, -0.436646, -2.014160, -0.061035, -0.122070
427157, 0.090088, 0.929932, -0.391846, -3.173829, -2.258301, -3.601075
427177, 0.028198, 0.938110, -0.364258, 0.183106, -2.258301, -1.892090
427197, 0.040283, 0.930298, -0.390869, 2.685547, -0.915528, 1.464844
427217, 0.080200, 0.919434, -0.423706, 2.441406, -0.061035, 2.075195
427237, 0.096558, 0.920044, -0.425171, -0.427246, -0.854492, -1.098633
427257, 0.083130, 0.919189, -0.425415, -1.708985, -1.098633, -2.563477
427277, 0.066895, 0.924316, -0.411865, -3.051759, -2.136230, -2.746582
427297, 0.052856, 0.931274, -0.387207, -2.258301, -2.258301, -1.586915
427317, 0.056885, 0.934570, -0.378174, -0.183106, -1.403809, -0.671387
427337, 0.053589, 0.931030, -0.386353, 1.647950, -0.305176, 0.183106
427357, 0.061646, 0.923950, -0.411377, 2.380371, 0.732422, 1.037598
427377, 0.077393, 0.918945, -0.431396, 0.549316, 0.488281, 0.854492
427397, 0.077148, 0.924194, -0.410034, -0.915528, -0.610352, 0.244141
427417, 0.069824, 0.930298, -0.394409, 0.183106, -1.831055, 0.305176
427437, 0.060059, 0.929077, -0.391724, 1.037598, -1.708985, 0.488281
436257, 0.181641, 0.861328, -0.497803, 4.882813, -7.995607, -7.507326
436277, 0.058716, 0.864624, -0.516357, 2.929688, -4.516602, -1.525879
436297, 0.122437, 0.886841, -0.442993, 4.577637, 2.380371, 11.108402
436317, 0.191406, 0.857544, -0.515503, 6.896975, 10.681152, 4.882813
436337, 0.218018, 0.852051, -0.463989, 7.690432, 16.540527, 2.380371
436357, 0.281616, 0.817383, -0.536133, 6.286623, 3.601075, -1.281738
436377, 0.223999, 0.821167, -0.591553, -1.342773, -7.873537, -3.906251
436397, 0.177856, 0.831665, -0.537231, -8.056641, -10.986328, -3.356935
436417, 0.155273, 0.843140, -0.489990, -9.826660, -14.892582, -1.220703
436437, 0.026367, 0.853271, -0.530396, -10.803223, -8.056641, 4.821777
436457, 0.065063, 0.880127, -0.467285, -11.413578, 10.314941, 14.099125
436477, 0.226685, 0.889038, -0.426880, -6.347658, 19.836426, 14.709476
436497, 0.241089, 0.886475, -0.414063, -0.976563, 25.695808, 7.812502
436517, 0.284302, 0.894775, -0.488525, 6.469728, 33.081055, -1.464844
436537, 0.250732, 0.869141, -0.534912, 7.385256, 30.639656, -28.381355
436557, 0.179565, 0.882690, -0.499146, 9.277344, 26.062019, -43.151855
436577, 0.032227, 0.870361, -0.474365, 11.657719, 30.517586, -43.518066
436597, -0.012207, 0.859985, -0.472656, 8.178711, 42.358398, -15.686039
436617, 0.124146, 0.878174, -0.437622, 5.859377, 44.738785, 10.864258
436637, 0.308716, 0.886963, -0.420654, 8.117676, 37.963867, 12.817387
436657, 0.455444, 0.890503, -0.483887, 8.972168, 28.442390, -9.033203
436677, 0.291138, 0.872559, -0.491089, 2.380371, 13.244633, -28.930672
436697, 0.064087, 0.875854, -0.489380, 1.098633, 8.789063, -13.854984
436717, 0.036987, 0.895630, -0.475098, -18.310547, 9.582520, -3.540040
436737, 0.335693, 0.877930, -0.560303, -29.541023, 18.188477, -7.202150
436757, 0.652954, 0.835938, -0.623047, -57.189957, -2.319336, -47.119156
436777, 0.257202, 0.880005, -0.292114, -57.800308, -40.710449, -52.124039
436797, 0.026978, 0.879761, -0.480591, -52.551285, -55.297867, -19.653320
436817, 0.022217, 0.871338, -0.389404, -73.486328, -72.631836, -0.732422
436837, 0.103271, 0.896606, -0.393311, -59.448257, -72.326660, 21.972656
436857, 0.325562, 0.888428, -0.372192, -58.654800, -72.570801, 22.216805
436877, 0.276001, 0.915039, -0.377197, -62.988297, -90.576202, 14.160160
436897, 0.085938, 0.938232, -0.280884, -64.636230, -72.875977, 19.165039
436917, 0.132446, 0.941895, -0.203857, -68.969727, -62.011734, 23.742683
436937, 0.158081, 0.957764, -0.194092, -58.898941, -58.715836, 30.578621
436957, 0.182495, 0.960205, -0.180542, -49.560562, -61.035172, 38.818359
436977, 0.235107, 0.976807, -0.191528, -42.663574, -64.392090, 35.339355
436997, 0.230957, 0.961182, -0.257935, -35.522461, -57.800308, 27.832039
437017, 0.199097, 0.938965, -0.316772, -28.320320, -58.349625, 16.723633
437037, 0.124390, 0.958008, -0.201904, -33.874512, -64.086914, 29.174812
437057, 0.234985, 1.004883, -0.098511, -22.766121, -58.227554, 36.010742
437077, 0.197021, 1.000488, -0.157837, -12.939457, -51.208511, 17.761230
437097, 0.076416, 1.002441, -0.121826, 5.004883, -37.292480, 15.747074
437117, 0.106079, 0.981079, -0.248047, 11.840824, -18.310547, 15.380863
437137, 0.089966, 0.998169, -0.119751, 10.620117, -8.483887, 12.695316
437157, 0.125366, 0.987305, -0.172852, 23.620613, 13.122562, 15.747074
437177, 0.191284, 0.988770, -0.100830, 38.452148, 20.507813, 15.991215
437197, 0.216675, 0.915039, -0.354370, 43.029785, 29.785164, 12.268070
437217, 0.106323, 0.936401, -0.354492, 13.427738, 30.883797, 7.812502
437237, 0.137939, 0.989380, -0.175903, 16.052246, 42.053223, 11.718754
437257, 0.136963, 0.995728, -0.156982, 41.259766, 57.128922, 7.324221
437277, 0.212524, 0.947388, -0.275391, 51.940933, 85.571289, -2.990724
437297, 0.252075, 0.961426, -0.212524, 51.818863, 83.496094, -11.779789
437317, 0.283325, 0.920410, -0.294434, 52.734390, 80.078125, -13.916019
437337, 0.400269, 0.911865, -0.298340, 40.893555, 69.824219, -15.808109
437357, 0.392334, 0.942993, -0.237305, 43.762207, 69.763184, -33.081055
437377, 0.421753, 0.909058, -0.287720, 39.855957, 58.105484, -38.574219
437397, 0.273315, 0.916016, -0.324219, 41.076660, 45.776382, -45.532242
437417, 0.120117, 0.865967, -0.469971, 24.169930, 43.640137, -29.418953
437437, 0.152710, 0.930298, -0.337891, 17.150879, 37.170410, -15.075687
437457, 0.318726, 0.927734, -0.324463, 16.296387, 34.179688, -13.244633
437477, 0.466797, 0.893188, -0.380737, 5.065918, 5.554201, -33.874512
437497, 0.302612, 0.898193, -0.406006, -1.342773, -5.737307, -41.015625
437517, -0.007446, 0.914673, -0.363770, -9.277344, -13.916019, -26.916512
437537, -0.059326, 0.934692, -0.373047, -9.094238, -7.873537, -0.732422
437557, 0.113403, 0.932129, -0.352661, -13.244633, -2.868653, 9.460449
437577, 0.332886, 0.937256, -0.260986, -8.422852, 3.845216, 7.324221
437597, 0.348145, 0.931274, -0.304321, -2.685547, 4.821777, -4.455566
437617, 0.199585, 0.923828, -0.340698, -3.723145, -3.601075, -8.544922
437637, 0.049927, 0.924438, -0.374634, -4.577637, -9.399414, 6.469728
437657, 0.296021, 0.913208, -0.383423, -14.099125, -28.198250, 16.174316
437677, 0.234863, 0.936401, -0.317871, -17.333984, -44.921890, 12.939457
437697, 0.113403, 0.962769, -0.242188, -12.329105, -34.606934, 15.258793
437717, 0.162720, 0.957764, -0.244263, -5.615236, -21.850586, 16.784668
437737, 0.260986, 0.931030, -0.324219, -2.624512, -14.282230, 14.404301
437757, 0.291016, 0.921143, -0.350708, -5.615236, -18.066406, 8.544922
