timestamp,ax,ay,az,gx,gy,gz
594140, 0.693726, 0.665039, -0.278442, 0.366211, -0.488281, -0.488281
594160, 0.691772, 0.666992, -0.268677, 0.183106, -1.037598, -0.244141
594180, 0.702271, 0.668701, -0.268433, 0.427246, -0.610352, -0.305176
594200, 0.701050, 0.667725, -0.273804, 0.427246, -0.976563, -0.488281
594220, 0.705566, 0.667847, -0.276733, 0.122070, -0.793457, -0.976563
594240, 0.690186, 0.666992, -0.273682, -0.183106, -0.488281, -0.976563
594260, 0.689453, 0.666260, -0.275879, -0.488281, 0.732422, -0.671387
594280, 0.690918, 0.665405, -0.281128, -0.976563, 3.112794, -0.732422
594300, 0.682739, 0.668579, -0.273682, -1.586915, 6.896975, -0.671387
594320, 0.675171, 0.676392, -0.258545, -0.976563, 13.916019, -0.366211
594340, 0.696289, 0.685303, -0.230591, 1.403809, 21.301270, -0.610352
594360, 0.652466, 0.723511, -0.247437, 20.507813, 12.939457, -8.422852
594380, 0.722778, 0.703979, -0.332520, 24.780281, 4.089355, -14.038090
594400, 0.668823, 0.655273, -0.344604, 18.676758, 4.882813, -15.502934
594420, 0.631836, 0.638794, -0.319580, 9.765625, 10.925293, -9.460449
594480, 0.715454, 0.693115, -0.224365, 5.249023, 15.747074, -5.798342
594500, 0.712891, 0.700195, -0.211182, 8.483887, 12.207035, -7.385256
594520, 0.722290, 0.680786, -0.222656, 11.779789, 10.620117, -10.192871
594540, 0.718872, 0.655029, -0.240601, 9.216309, 5.249023, -10.009766
594560, 0.710571, 0.677490, -0.240967, 5.981447, 0.366211, -6.958010
594580, 0.667480, 0.664795, -0.252197, 4.821777, 0.061035, -6.652834
594600, 0.685303, 0.687500, -0.244873, 5.432129, 1.708985, -5.554201
594620, 0.682129, 0.684448, -0.259033, 4.821777, 1.647950, -4.272461
594640, 0.700928, 0.680176, -0.262939, 3.906251, 1.403809, -4.882813
594660, 0.685303, 0.673218, -0.266113, 2.685547, -0.122070, -4.211426
594680, 0.680542, 0.682251, -0.265625, 1.403809, 0.427246, -3.112794
594700, 0.690308, 0.701172, -0.261475, 0.976563, 0.488281, -3.662110
594720, 0.681152, 0.706421, -0.262695, 1.403809, 0.183106, -6.225588
594740, 0.670654, 0.722534, -0.256592, 2.929688, 3.662110, -9.460449
594760, 0.679321, 0.721802, -0.258423, 3.723145, 4.821777, -11.047363
594780, 0.679688, 0.698975, -0.271362, 3.173829, 4.699707, -14.038090
594800, 0.650024, 0.684448, -0.265991, 1.464844, 2.990724, -11.962894
594820, 0.655273, 0.707031, -0.259766, 0.854492, 1.831055, -9.094238
594840, 0.669678, 0.726563, -0.247681, 1.281738, 2.136230, -9.826660
594860, 0.667969, 0.740234, -0.255981, 2.014160, 3.662110, -14.038090
594880, 0.660034, 0.754761, -0.261108, 0.793457, 4.516602, -18.493652
594900, 0.649780, 0.773193, -0.255859, -0.183106, 6.896975, -23.071297
594920, 0.614258, 0.743774, -0.250610, -2.014160, 6.286623, -30.639656
594940, 0.596436, 0.763550, -0.229492, -1.525879, 7.202150, -28.747566
594960, 0.619263, 0.762695, -0.233521, -1.037598, 13.366703, -30.578621
594980, 0.623535, 0.783569, -0.233276, -1.770020, 13.244633, -32.897949
595000, 0.592529, 0.787476, -0.231201, -2.563477, 16.357422, -37.841797
595020, 0.581909, 0.787109, -0.219360, -1.892090, 25.695808, -40.710449
595040, 0.572021, 0.774048, -0.213867, -3.662110, 22.033691, -37.780762
595060, 0.581787, 0.789063, -0.202515, -5.737307, 21.850586, -35.766602
595080, 0.579346, 0.786743, -0.205811, -9.765625, 18.310547, -34.423828
595100, 0.561890, 0.797607, -0.211792, -14.038090, 13.671879, -33.264160
595120, 0.557983, 0.785400, -0.200317, -23.864754, 5.737307, -31.738289
595160, 0.570557, 0.794067, -0.151611, -31.738289, -14.343266, -19.653320
595180, 0.598999, 0.796875, -0.176880, -37.780762, -19.592285, -20.385742
595200, 0.583496, 0.791992, -0.166870, -49.194351, -27.465828, -20.446777
595220, 0.545654, 0.797119, -0.123413, -57.250992, -37.292480, -15.502934
595240, 0.533325, 0.798218, -0.080688, -57.617203, -50.354019, -6.652834
595260, 0.536743, 0.790283, -0.102051, -55.786148, -55.419937, 3.051759
595280, 0.546875, 0.783813, -0.086304, -50.109879, -63.842789, 13.916019
595300, 0.544678, 0.770630, -0.164185, -50.476089, -47.790543, 23.620613
595320, 0.519043, 0.760864, -0.162720, -52.795425, -36.437988, 32.043457
595340, 0.522095, 0.762085, -0.145386, -48.706070, -26.000984, 42.724609
595360, 0.531616, 0.798462, -0.115723, -42.724609, -15.075687, 49.621597
595380, 0.557373, 0.809204, -0.074951, -32.165527, -12.023930, 53.710953
595400, 0.593384, 0.842651, -0.080811, -20.202637, -6.591799, 49.133316
595420, 0.640259, 0.890259, -0.109253, -13.305668, -3.295899, 36.376953
595440, 0.640015, 0.883789, -0.104614, -7.141115, -5.126953, 21.362305
595460, 0.591675, 0.849731, -0.096680, -2.929688, -5.249023, 12.390141
595480, 0.503296, 0.818237, -0.039185, 5.554201, -7.751467, 17.700195
595500, 0.487915, 0.810547, -0.020752, 26.000984, -0.610352, 36.621094
595520, 0.540283, 0.841919, -0.067383, 34.790039, 7.446291, 39.916992
595540, 0.623291, 0.820313, -0.110474, 33.447266, 21.728516, 31.372078
595560, 0.660889, 0.829590, -0.102417, 28.808601, 28.930672, 20.202637
595580, 0.652100, 0.840088, -0.019897, 34.790039, 18.066406, 14.953617
595600, 0.634399, 0.835571, 0.009399, 51.025406, 5.310059, 13.244633
595620, 0.603271, 0.802002, -0.065552, 62.561050, 5.615236, 11.108402
595640, 0.618530, 0.783325, -0.153564, 59.814468, 12.756351, 6.042482
595660, 0.673340, 0.779541, -0.166992, 50.476089, 18.066406, 0.488281
595680, 0.647217, 0.753174, -0.158936, 32.348633, 26.062019, -3.723145
595700, 0.701294, 0.774780, -0.132080, 24.169930, 31.372078, -10.253906
595720, 0.722290, 0.805176, -0.122314, 19.470215, 28.625496, -21.118164
595740, 0.732910, 0.799805, -0.113525, 16.357422, 23.681648, -32.714844
595760, 0.677124, 0.764893, -0.113647, 12.817387, 9.155273, -37.231445
595780, 0.648682, 0.788574, -0.120972, 9.338379, 1.098633, -39.611816
595800, 0.593018, 0.740601, -0.134277, 7.751467, 1.159668, -39.001465
595820, 0.584351, 0.761230, -0.151978, 4.943848, 8.056641, -34.118652
595840, 0.629150, 0.743530, -0.168579, 0.549316, 13.671879, -32.287598
595860, 0.633545, 0.730957, -0.183228, -6.225588, 18.737793, -32.897949
595880, 0.627563, 0.751221, -0.155884, -16.784668, 14.526371, -29.602058
595900, 0.570557, 0.757568, -0.116577, -17.456055, 7.690432, -22.827156
595920, 0.574585, 0.769653, -0.115234, -15.808109, 10.559082, -15.686039
595940, 0.597534, 0.761597, -0.124878, -15.625004, 12.634281, -12.084965
595980, 0.604614, 0.784668, -0.090332, -13.305668, 8.605957, -3.479005
596060, 0.545776, 0.841309, -0.021484, -4.516602, 0.610352, -1.159668
596080, 0.552490, 0.839478, -0.019531, -0.305176, -0.854492, 0.183106
596160, 0.556885, 0.822510, -0.098145, 3.112794, -5.981447, 1.708985
596180, 0.561279, 0.824219, -0.098267, 1.586915, -3.784181, 1.647950
596200, 0.571533, 0.822510, -0.095947, 0.305176, -1.281738, 0.732422
596220, 0.565308, 0.824219, -0.087646, -0.610352, -0.915528, 0.061035
596240, 0.560059, 0.826050, -0.079590, -0.732422, -0.305176, 0.183106
596260, 0.573242, 0.828247, -0.068604, -0.061035, -1.892090, -0.061035
596280, 0.555542, 0.828247, -0.070801, 0.793457, -3.051759, 0.122070
596300, 0.557251, 0.828369, -0.071045, 1.647950, -2.624512, 0.915528
596320, 0.563843, 0.825806, -0.081543, 2.075195, -3.356935, 1.159668
596340, 0.561646, 0.826172, -0.078125, 2.197266, -3.417970, 1.220703
596360, 0.568970, 0.824585, -0.087402, 2.624512, -2.258301, 1.098633
596380, 0.569702, 0.819946, -0.101563, 1.464844, -2.136230, 0.610352
596400, 0.564087, 0.822388, -0.096313, 0.305176, -1.831055, 0.488281
596420, 0.559692, 0.824341, -0.090332, -0.244141, -1.831055, 0.793457
596440, 0.555786, 0.827515, -0.087158, -0.488281, -1.403809, 1.770020
596460, 0.550049, 0.835205, -0.070068, 0.183106, 0.244141, 3.051759
596480, 0.552734, 0.848877, -0.044800, 3.051759, 2.746582, 4.394531
596500, 0.519287, 0.850586, -0.046631, 6.042482, -1.220703, 9.948730
596520, 0.612549, 0.838135, -0.049561, 10.009766, -5.676271, 12.390141
596540, 0.626587, 0.807251, -0.088013, 10.681152, -20.812988, 14.709476
596560, 0.540161, 0.818970, -0.068604, 16.296387, -27.404793, 35.522461
596580, 0.529175, 0.845337, -0.057495, 28.381355, -23.193367, 66.345215
596600, 0.640259, 0.761597, -0.046387, 39.245605, -9.643555, 82.519531
596620, 0.784790, 0.677124, -0.148071, 43.701172, -4.211426, 67.443848
596640, 0.735474, 0.596802, -0.289673, 29.724129, -10.070801, 57.617203
596660, 0.790161, 0.593140, -0.221558, 20.751953, -18.493652, 52.978531
596680, 0.719360, 0.619995, -0.191284, 21.118164, -39.550781, 48.461929
596700, 0.702881, 0.620239, -0.208740, 21.423340, -21.789551, 35.095215
596720, 0.740234, 0.599854, -0.241821, 19.653320, -16.479492, 21.606445
596740, 0.731201, 0.596680, -0.253296, 16.601563, -21.911621, 10.742188
596760, 0.703979, 0.630249, -0.248657, 13.610844, -36.560059, 5.920412
596780, 0.647949, 0.666016, -0.235718, 12.939457, -44.311539, 7.263186
596800, 0.620117, 0.671997, -0.248413, 10.498047, -36.560059, 10.253906
596820, 0.646484, 0.710327, -0.260254, 0.854492, -17.944336, 11.779789
596840, 0.694458, 0.734863, -0.240112, -2.441406, -2.990724, 10.925293
596860, 0.740356, 0.703491, -0.236694, -0.183106, -2.563477, 11.840824
596880, 0.723633, 0.679688, -0.257324, 2.502441, -7.324221, 11.413578
596900, 0.699707, 0.673340, -0.253296, 7.202150, -12.512211, 11.657719
596920, 0.690186, 0.666504, -0.260620, 11.901859, -9.765625, 9.399414
596940, 0.666626, 0.667114, -0.293091, 11.596684, -2.197266, 7.019045
596960, 0.673706, 0.666016, -0.317261, 5.126953, 4.028320, 8.178711
596980, 0.730225, 0.670166, -0.320435, -3.112794, 2.563477, 8.239746
597000, 0.758545, 0.657471, -0.304810, -7.934572, 0.610352, 0.427246
597020, 0.747925, 0.624390, -0.284912, -8.605957, 4.089355, -5.249023
597040, 0.732056, 0.609619, -0.285645, -8.789063, 3.601075, -7.629396
597060, 0.706299, 0.630859, -0.263672, -5.310059, 8.422852, -6.896975
597080, 0.721802, 0.644043, -0.281372, -2.685547, 19.592285, -7.263186
597100, 0.786133, 0.732910, -0.283569, -0.061035, 8.666992, -4.211426
597120, 0.739014, 0.649170, -0.305420, -1.647950, 5.249023, -4.516602
597140, 0.705688, 0.639404, -0.280151, -4.028320, 8.605957, -3.540040
597160, 0.721191, 0.643555, -0.241333, -4.089355, 8.972168, -2.441406
597180, 0.736328, 0.648193, -0.216919, -1.953125, 6.103518, -2.380371
597200, 0.738770, 0.652100, -0.227905, 2.014160, 1.770020, -2.929688
597220, 0.720703, 0.650635, -0.255127, 2.685547, -0.427246, -2.319336
597240, 0.714722, 0.649414, -0.266846, 1.770020, 0.488281, -1.098633
597260, 0.715698, 0.645020, -0.268555, 0.671387, 1.342773, 0.000000
597280, 0.718872, 0.642700, -0.266113, -0.854492, 1.586915, 0.915528
597300, 0.724487, 0.644531, -0.251709, -1.281738, 2.075195, 1.037598
597320, 0.727417, 0.643555, -0.248291, -1.281738, 3.906251, 0.793457
597340, 0.735107, 0.645264, -0.239502, -1.098633, 3.601075, 0.488281
597360, 0.731201, 0.645874, -0.236938, -0.305176, 2.990724, 0.122070
597380, 0.733398, 0.646606, -0.239990, 0.061035, 0.183106, 0.366211
597400, 0.730347, 0.646851, -0.240112, 0.427246, 0.244141, 0.366211
597420, 0.728271, 0.644165, -0.246582, 0.427246, 1.281738, 0.183106
597440, 0.730713, 0.642944, -0.241821, 0.305176, 0.610352, 0.305176
597460, 0.736938, 0.644043, -0.236450, 0.732422, 0.854492, -0.244141
597480, 0.734009, 0.644653, -0.243164, 0.854492, 1.098633, -0.793457
597500, 0.730225, 0.642944, -0.242798, 0.549316, -0.793457, -0.549316
597520, 0.722778, 0.644653, -0.246460, 0.305176, -0.122070, -0.305176
597540, 0.729980, 0.645386, -0.242432, 0.183106, 0.427246, -0.061035
597560, 0.730225, 0.645020, -0.242554, 0.122070, -0.610352, 0.061035
597580, 0.723999, 0.644165, -0.241577, -0.122070, 0.061035, 0.427246
597600, 0.728149, 0.644287, -0.240967, -0.122070, 0.244141, 0.671387
597620, 0.734497, 0.645142, -0.235840, -0.122070, -0.061035, 0.610352
597640, 0.731323, 0.645264, -0.234253, 0.549316, -0.061035, 0.366211
597660, 0.733643, 0.642944, -0.235474, 0.854492, -0.122070, 0.244141
597680, 0.730225, 0.643433, -0.237183, 1.159668, -0.183106, 0.122070
597700, 0.734253, 0.642090, -0.239746, 1.220703, -0.549316, 0.000000
597780, 0.729980, 0.644043, -0.237183, 0.488281, -0.793457, -0.488281
597800, 0.727173, 0.645142, -0.240601, 0.671387, -0.488281, -0.244141
597820, 0.730591, 0.642944, -0.240479, 0.671387, -0.732422, 0.000000
597840, 0.731079, 0.643799, -0.240723, 0.671387, -1.037598, -0.244141
597860, 0.733521, 0.642578, -0.242065, 0.671387, -1.525879, 0.061035
597900, 0.727783, 0.643555, -0.242798, 0.061035, -0.793457, -0.244141
597920, 0.726196, 0.643311, -0.240479, -0.061035, 0.122070, 0.000000
597980, 0.730957, 0.643311, -0.238159, 0.427246, -1.098633, -0.793457
598000, 0.727783, 0.641479, -0.247681, 0.305176, -0.244141, -0.854492
598020, 0.729370, 0.638794, -0.251465, -0.610352, 0.000000, -0.915528
598040, 0.725220, 0.639404, -0.253296, -1.464844, 2.990724, -1.647950
598060, 0.717529, 0.645020, -0.254150, -2.441406, 8.117676, -1.892090
598080, 0.693359, 0.650024, -0.240967, -2.868653, 17.883301, -1.647950
598100, 0.692993, 0.675415, -0.197510, -0.854492, 28.503426, -0.183106
598120, 0.754395, 0.731323, -0.172729, 9.948730, 34.362793, -6.774904
598140, 0.698486, 0.746460, -0.268433, 21.545410, 22.766121, -12.817387
598160, 0.780273, 0.755371, -0.218018, 27.465828, 46.325699, -21.118164
598180, 0.900024, 0.805298, -0.282227, 28.137215, 19.775391, -41.137695
598200, 0.847046, 0.797852, -0.264160, 26.000984, 0.549316, -66.345215
598220, 0.719849, 0.786011, -0.234741, 25.695808, -9.765625, -85.571289
598240, 0.562744, 0.789673, -0.173950, 28.991707, -3.051759, -92.041046
598260, 0.462524, 0.744385, -0.177002, 31.677254, 7.629396, -88.378906
598280, 0.381714, 0.727905, -0.194458, 25.939949, 14.526371, -67.565918
598300, 0.428223, 0.738647, -0.208130, 15.136723, 27.343758, -44.799820
598320, 0.493164, 0.725220, -0.209839, 4.211426, 42.358398, -29.785164
598340, 0.639404, 0.719360, -0.177368, -7.690432, 54.016129, -14.831547
598360, 0.764893, 0.737549, -0.177246, -17.578125, 52.429214, -16.906738
598400, 0.644409, 0.759155, -0.051025, -31.311043, -0.244141, -20.874023
598420, 0.625610, 0.763184, -0.027954, -28.625496, -16.418457, -14.160160
598440, 0.683594, 0.762817, -0.060791, -26.428230, -22.399910, -12.695316
598460, 0.716431, 0.739136, -0.084473, -28.137215, -37.292480, -12.878422
598480, 0.651489, 0.770996, -0.072876, -17.822266, -57.250992, -6.713869
598500, 0.691162, 0.708862, -0.211914, -22.277840, -53.466812, -7.080080
598520, 0.669189, 0.687988, -0.233276, -41.748047, -72.631836, 0.854492
598540, 0.592896, 0.672729, -0.277466, -59.753433, -64.453125, 9.887695
598560, 0.601807, 0.722778, -0.225708, -65.795898, -54.382339, 17.272949
598580, 0.587769, 0.720093, -0.233276, -63.049332, -38.146973, 22.644051
598600, 0.613525, 0.715332, -0.224243, -60.668961, -28.259285, 28.381355
598620, 0.563965, 0.748901, -0.190186, -55.175797, -23.071297, 33.996582
598640, 0.561646, 0.789307, -0.130249, -39.306641, -31.616219, 38.757324
598660, 0.541748, 0.805786, -0.166260, -26.367195, -24.597176, 39.611816
598680, 0.609253, 0.828613, -0.182251, -16.235352, -10.131836, 31.494148
598700, 0.588989, 0.785767, -0.184692, -8.239746, -8.728027, 27.526863
598720, 0.598633, 0.784302, -0.173706, 1.892090, -8.300781, 30.578621
598740, 0.553101, 0.831909, -0.133423, 7.690432, -6.164553, 33.447266
598760, 0.613892, 0.849365, -0.136719, 10.070801, 14.160160, 24.108894
598780, 0.612915, 0.859497, -0.079346, 16.723633, 20.385742, 15.747074
598800, 0.622070, 0.861694, -0.062744, 27.648933, 23.132332, 10.803223
598820, 0.638306, 0.826172, -0.097412, 38.330078, 18.676758, 6.286623
598840, 0.635254, 0.822388, -0.158447, 41.442871, 17.272949, -0.671387
598920, 0.608032, 0.825684, -0.153564, 22.338875, 30.517586, -27.771004
599020, 0.650269, 0.809570, -0.051636, 7.385256, 16.601563, -41.931152
599040, 0.627686, 0.805542, -0.092651, 3.662110, 8.666992, -45.654312
599060, 0.595947, 0.822510, -0.126587, -2.624512, 1.647950, -50.415054
599080, 0.530396, 0.815186, -0.109863, -6.896975, -0.854492, -51.147476
599100, 0.505859, 0.842896, -0.118408, -10.986328, -4.150391, -46.325699
599120, 0.515503, 0.812256, -0.133789, -15.319828, 1.831055, -46.569839
599140, 0.518066, 0.808716, -0.091431, -16.235352, -8.178711, -38.330078
599160, 0.517334, 0.794556, -0.083008, -14.770512, -12.451176, -27.648933
599180, 0.516846, 0.800415, -0.065063, -13.427738, -13.854984, -15.686039
599200, 0.558716, 0.821411, -0.064941, -10.498047, -9.887695, -9.399414
599220, 0.586670, 0.814697, -0.069580, -5.737307, -10.803223, -7.446291
599240, 0.587036, 0.837891, -0.099487, -0.854492, -14.282230, -5.493164
599260, 0.627930, 0.846680, -0.179810, -4.638672, -5.249023, -17.883301
599280, 0.524658, 0.860229, -0.160767, -16.540527, -21.789551, -30.578621
599300, 0.429443, 0.883545, -0.122070, -20.629883, -22.888191, -31.066902
599320, 0.364258, 0.897095, -0.100098, -22.766121, -22.460945, -26.306160
599340, 0.312866, 0.913696, -0.061768, -22.583015, -20.385742, -18.127441
599360, 0.289307, 0.927734, -0.021729, -18.249512, -10.437012, -8.422852
599380, 0.314331, 0.932983, 0.002930, -12.084965, -5.371094, 1.098633
599400, 0.349976, 0.929688, 0.017578, -4.943848, -3.051759, 8.605957
599420, 0.412720, 0.927368, 0.025146, 3.051759, -0.915528, 12.084965
599440, 0.463501, 0.916626, 0.001221, 9.948730, -6.103518, 12.146000
599460, 0.494019, 0.903687, -0.039673, 14.160160, -11.596684, 9.460449
599480, 0.469727, 0.888916, -0.109863, 13.610844, -18.066406, 4.821777
599500, 0.448730, 0.888428, -0.126831, 11.474613, -15.136723, 2.746582
599520, 0.420898, 0.886963, -0.150269, 8.422852, -9.643555, 2.441406
599540, 0.429688, 0.883301, -0.167847, 4.028320, -1.525879, 2.624512
599560, 0.453491, 0.879883, -0.163940, -1.220703, 1.525879, 2.014160
599580, 0.454834, 0.886475, -0.131592, -5.126953, 2.319336, 0.915528
599600, 0.448730, 0.893799, -0.095215, -5.676271, 3.662110, 0.183106
599620, 0.436768, 0.898926, -0.084961, -4.943848, 2.624512, 0.244141
599640, 0.408325, 0.902832, -0.077759, -3.967286, 3.112794, 3.051759
599660, 0.443848, 0.898193, -0.073730, -1.586915, 1.342773, 5.798342
599680, 0.458618, 0.899536, -0.061768, 0.488281, -0.976563, 5.859377
599700, 0.470581, 0.893066, -0.086914, 2.075195, -1.525879, 5.065918
599720, 0.464111, 0.887695, -0.104126, 1.342773, -2.563477, 4.028320
