timestamp,ax,ay,az,gx,gy,gz
1814029, 0.585571, 0.458374, -0.680664, -1.037598, -0.610352, -1.708985
1814049, 0.581909, 0.477539, -0.678833, -0.610352, -1.403809, -1.525879
1814069, 0.583130, 0.472778, -0.677979, 0.244141, -0.305176, -1.037598
1814089, 0.583130, 0.470703, -0.676636, 0.122070, -0.854492, -1.586915
1814109, 0.583252, 0.460815, -0.669067, 0.427246, -0.732422, -2.075195
1814129, 0.582886, 0.461792, -0.677002, -0.549316, -0.122070, -2.807618
1814149, 0.586548, 0.471436, -0.672729, -0.366211, -0.671387, -2.624512
1814169, 0.581665, 0.469849, -0.679810, -0.610352, -0.854492, -2.868653
1814189, 0.577881, 0.459839, -0.669312, -0.610352, 0.183106, -3.662110
1814209, 0.575073, 0.457275, -0.679932, -2.075195, -0.549316, -4.516602
1814229, 0.581055, 0.473755, -0.677856, -3.845216, -0.122070, -4.638672
1814249, 0.579468, 0.489624, -0.673828, -3.479005, -0.793457, -3.784181
1814269, 0.585571, 0.492676, -0.673828, -2.746582, -1.220703, -2.624512
1814289, 0.575439, 0.488281, -0.667725, -1.770020, -0.549316, -1.586915
1814309, 0.578613, 0.483154, -0.674683, -1.586915, -0.061035, -1.342773
1814329, 0.575195, 0.483154, -0.673706, -2.441406, -0.305176, -1.525879
1814349, 0.578735, 0.476318, -0.669678, -2.807618, -0.549316, -1.586915
1814369, 0.575928, 0.465576, -0.668823, -3.662110, -0.549316, -2.197266
1814389, 0.571899, 0.462769, -0.669434, -5.004883, -0.793457, -3.295899
1814409, 0.573853, 0.477173, -0.671143, -6.958010, -0.976563, -4.638672
1814429, 0.575073, 0.506592, -0.666748, -7.263186, -1.342773, -4.821777
1814449, 0.578613, 0.515991, -0.666260, -5.493164, -1.281738, -3.295899
1814469, 0.572388, 0.497314, -0.661255, -3.967286, -1.464844, -2.868653
1814489, 0.567749, 0.480225, -0.664307, -4.699707, -1.220703, -4.272461
1814509, 0.565430, 0.485352, -0.667480, -6.774904, -1.098633, -6.774904
1814529, 0.570923, 0.531250, -0.669067, -5.676271, -1.098633, -5.187988
1814549, 0.571533, 0.525513, -0.660278, -3.845216, -0.854492, -2.929688
1814569, 0.566528, 0.507568, -0.656250, -3.051759, -1.098633, -2.441406
1814589, 0.562866, 0.505127, -0.661743, -4.394531, -1.647950, -4.272461
1814609, 0.563599, 0.518799, -0.664307, -4.028320, -1.159668, -4.455566
1814629, 0.566406, 0.533569, -0.662354, -2.807618, -0.732422, -2.807618
1814649, 0.568115, 0.538818, -0.654663, -1.159668, -0.549316, -0.854492
1814669, 0.565918, 0.524170, -0.653809, -0.671387, -0.976563, -0.122070
1814689, 0.565430, 0.517944, -0.652954, -0.915528, -0.366211, 0.000000
1814709, 0.566406, 0.518677, -0.658325, -0.610352, -0.122070, -1.159668
1814729, 0.563232, 0.517944, -0.658813, -0.671387, -0.305176, -2.075195
1814749, 0.561646, 0.526489, -0.661377, -0.549316, -0.183106, -2.136230
1814769, 0.570435, 0.529297, -0.653442, 0.305176, -0.854492, -1.892090
1814789, 0.560791, 0.525146, -0.654419, 0.793457, -1.098633, -1.342773
1814809, 0.561157, 0.518799, -0.657959, -0.183106, -0.854492, -0.793457
1814829, 0.560913, 0.518066, -0.652832, -0.732422, -0.427246, -0.549316
1814849, 0.564697, 0.525635, -0.653442, -0.427246, -0.610352, -0.976563
1814869, 0.558472, 0.523071, -0.653687, -0.061035, -0.305176, -0.549316
1814889, 0.567749, 0.526489, -0.664063, -0.671387, 0.183106, -0.793457
1814909, 0.566650, 0.522339, -0.647339, 0.610352, 0.305176, 0.183106
1814929, 0.564331, 0.522583, -0.660889, -0.244141, -0.366211, -0.671387
1814949, 0.566284, 0.527832, -0.647949, 0.305176, -0.061035, -0.244141
1814969, 0.568115, 0.525024, -0.655273, 0.610352, -0.732422, -0.854492
1814989, 0.562744, 0.525879, -0.652344, 0.549316, -0.183106, -0.122070
1815009, 0.562744, 0.519653, -0.652832, 0.610352, -0.610352, -0.183106
1815029, 0.561279, 0.518311, -0.655884, 0.366211, -0.549316, -0.488281
1815049, 0.562378, 0.515747, -0.658203, 0.183106, -0.305176, -0.854492
1815069, 0.562988, 0.511597, -0.656128, -0.488281, 0.305176, -1.464844
1815089, 0.563965, 0.513916, -0.650635, -1.403809, 0.000000, -2.685547
1815109, 0.565430, 0.517700, -0.651001, -1.403809, -0.061035, -2.563477
1815129, 0.560425, 0.510742, -0.650269, -1.647950, 0.366211, -3.234864
1815149, 0.559326, 0.499146, -0.653931, -2.563477, 0.793457, -4.638672
1815169, 0.557251, 0.513062, -0.657715, -3.845216, 0.183106, -6.103518
1815189, 0.555420, 0.531982, -0.663940, -4.455566, 1.586915, -5.920412
1815209, 0.545166, 0.532837, -0.654175, -4.333496, 2.014160, -4.516602
1815229, 0.548828, 0.527100, -0.653809, -5.065918, 3.723145, -3.906251
1815249, 0.490967, 0.507935, -0.654663, -7.446291, 9.887695, -2.441406
1815269, 0.532837, 0.531738, -0.634399, -9.643555, 22.949226, -0.732422
1815289, 0.606689, 0.535767, -0.626953, -7.690432, 21.850586, -7.019045
1815309, 0.606934, 0.538086, -0.613159, -8.972168, 12.634281, -11.474613
1815329, 0.563354, 0.554810, -0.617188, -9.826660, 8.728027, -13.061527
1815349, 0.529419, 0.665405, -0.605713, -4.882813, 11.535648, -3.845216
1815369, 0.636597, 0.603027, -0.605469, 3.417970, 19.104004, 0.122070
1815389, 0.580322, 0.552002, -0.597778, 2.319336, 4.882813, -4.089355
1815409, 0.593750, 0.560791, -0.592773, 3.051759, 7.019045, -4.821777
1815429, 0.578979, 0.558594, -0.611084, 1.525879, 8.300781, -4.272461
1815449, 0.590698, 0.557861, -0.595581, 1.220703, 9.277344, -3.295899
1815469, 0.582397, 0.553711, -0.622192, -1.770020, 5.065918, -1.220703
1815489, 0.632935, 0.559937, -0.588745, -3.601075, 1.098633, -0.976563
1815509, 0.646973, 0.556885, -0.563599, -0.427246, -13.610844, -1.708985
1815529, 0.610107, 0.563354, -0.583618, 1.403809, -24.658211, -0.610352
1815549, 0.564453, 0.561035, -0.612671, 1.770020, -26.184090, 1.647950
1815569, 0.519165, 0.539185, -0.607422, -0.305176, -15.930180, 8.239746
1815589, 0.574097, 0.546143, -0.607178, -3.479005, -11.474613, 12.817387
1815609, 0.539795, 0.539063, -0.588989, -14.099125, 4.882813, 25.146492
1815629, 0.642212, 0.577515, -0.551880, -19.653320, 6.164553, 29.846199
1815649, 0.622803, 0.578979, -0.542847, -25.451668, 5.920412, 33.996582
1815669, 0.628784, 0.617554, -0.586670, -23.864754, -8.056641, 24.597176
1815689, 0.597290, 0.588623, -0.626953, -21.911621, -17.272949, 19.226074
1815709, 0.536255, 0.600342, -0.623901, -23.742683, -15.808109, 15.258793
1815729, 0.546509, 0.592896, -0.623535, -19.226074, -9.277344, 10.620117
1815749, 0.547241, 0.591553, -0.607788, -20.690918, -4.882813, 8.483887
1815769, 0.586060, 0.572632, -0.603760, -14.770512, -0.915528, 2.502441
1815789, 0.562500, 0.619507, -0.623169, -12.878422, 6.591799, -3.356935
1815809, 0.593872, 0.630127, -0.622925, -13.854984, 8.850098, -11.291508
1815829, 0.612427, 0.623779, -0.628662, -11.291508, 8.056641, -20.385742
1815849, 0.594482, 0.585815, -0.614868, -5.371094, -1.281738, -35.461426
1815869, 0.574463, 0.548706, -0.606323, 2.746582, 1.403809, -43.823242
1815889, 0.551025, 0.552856, -0.571655, 15.258793, -5.615236, -46.325699
1815909, 0.503540, 0.508545, -0.591309, 19.226074, -11.413578, -41.809082
1815929, 0.550171, 0.564941, -0.568726, 16.967773, -4.150391, -31.066902
1815949, 0.559326, 0.565186, -0.538330, 14.526371, -5.615236, -24.719246
1815969, 0.575073, 0.606934, -0.513794, 11.718754, -4.455566, -15.625004
1815989, 0.598999, 0.605591, -0.519775, 2.319336, 2.441406, -3.234864
1816009, 0.707520, 0.644409, -0.466797, 1.586915, -18.859863, -0.244141
1816029, 0.626343, 0.626099, -0.536621, 9.216309, -49.621597, -4.394531
1816049, 0.557007, 0.621582, -0.612549, 9.521484, -81.726074, -5.554201
1816069, 0.485352, 0.610352, -0.650024, 7.385256, -90.209991, -5.798342
1816089, 0.338257, 0.630005, -0.709229, 1.586915, -71.716309, -2.624512
1816109, 0.332886, 0.637085, -0.748169, -25.878914, -33.264160, 16.906738
1816129, 0.379639, 0.640991, -0.609985, -37.719727, 7.934572, 30.578621
1816149, 0.520264, 0.647217, -0.579590, -32.592773, 5.676271, 26.000984
1816169, 0.471436, 0.674072, -0.619019, -30.151375, 14.831547, 18.493652
1816189, 0.521973, 0.649292, -0.551758, -21.545410, 40.710449, 5.249023
1816209, 0.415039, 0.598267, -0.797363, -25.634773, 5.126953, 8.605957
1816229, 0.558105, 0.702026, -0.621460, -17.517090, 30.700691, 0.183106
1816249, 0.442871, 0.713989, -0.626831, -27.038582, 28.137215, -4.272461
1816269, 0.518188, 0.632690, -0.597046, -22.216805, 35.827637, -9.399414
1816289, 0.491943, 0.694580, -0.568115, -22.277840, 23.742683, -11.535648
1816309, 0.525024, 0.675781, -0.531738, -16.052246, 34.851074, -18.371582
1816329, 0.524292, 0.658081, -0.590820, -14.526371, 19.104004, -20.080566
1816349, 0.468628, 0.688354, -0.534912, -14.587406, 24.963387, -24.169930
1816369, 0.455933, 0.653809, -0.550293, -5.737307, 33.081055, -22.888191
1816389, 0.491211, 0.702393, -0.566895, -6.164553, 27.526863, -22.583015
1816409, 0.445679, 0.699219, -0.487183, 0.427246, 31.311043, -23.437508
1816429, 0.535767, 0.723267, -0.487671, 23.376472, 33.264160, -35.522461
1816449, 0.469849, 0.655029, -0.519775, 34.362793, 22.827156, -39.001465
1816469, 0.521851, 0.672241, -0.504395, 30.212410, 34.851074, -28.076180
1816489, 0.608398, 0.651855, -0.467529, 36.376953, 24.841316, -29.968269
1816509, 0.580444, 0.611694, -0.449341, 49.621597, -5.554201, -23.925789
1816529, 0.623779, 0.625488, -0.529541, 40.771484, -21.118164, -12.451176
1816549, 0.592773, 0.686035, -0.492432, 30.639656, -44.616714, -5.249023
1816569, 0.415039, 0.750488, -0.536011, 24.963387, -35.522461, -2.807618
1816589, 0.497437, 0.734741, -0.556396, 13.793949, -24.475105, -1.525879
1816609, 0.455078, 0.726196, -0.552612, 9.338379, -38.635254, -3.173829
1816629, 0.426758, 0.698120, -0.614258, 6.835939, -35.217285, -4.333496
1816649, 0.352295, 0.690430, -0.605225, 6.652834, -24.780281, -2.502441
1816669, 0.337524, 0.671631, -0.663818, 4.516602, -4.577637, 1.403809
1816689, 0.401123, 0.670898, -0.650269, -0.427246, 7.446291, 4.150391
1816709, 0.452026, 0.676270, -0.620850, -1.892090, 9.216309, 4.577637
1816729, 0.469727, 0.682007, -0.603638, -3.051759, 10.864258, 2.746582
1816749, 0.528442, 0.710693, -0.532715, 0.549316, 7.019045, -0.488281
1816769, 0.535278, 0.757690, -0.510010, 9.521484, -4.699707, -2.990724
1816789, 0.407349, 0.719360, -0.589966, 17.456055, -6.164553, 1.220703
1816809, 0.565796, 1.082031, -0.320435, 84.533691, 12.023930, 62.316910
1816829, 0.625000, 0.583374, -0.517334, 108.337433, 11.291508, 58.593765
1816849, 0.477539, 0.305054, -0.748779, 78.674316, -8.972168, 43.518066
1816869, 0.442993, 0.382080, -0.815674, 46.752945, -14.953617, 27.099617
1816889, 0.383667, 0.541992, -0.799561, 38.940430, -9.338379, 21.362305
1816909, 0.352661, 0.529785, -0.848267, 41.931152, -1.342773, 29.418953
1816929, 0.391724, 0.433228, -0.878174, 31.250008, 3.845216, 38.024902
1816949, 0.443481, 0.395874, -0.817627, 19.165039, -2.624512, 38.146973
1816969, 0.385620, 0.399292, -0.774414, 11.657719, 8.056641, 38.452148
1816989, 0.433228, 0.426025, -0.751465, 4.760742, 46.691910, 51.147476
1817009, 0.477417, 0.398193, -0.724121, -5.981447, 67.199707, 56.640640
