timestamp,ax,ay,az,gx,gy,gz
1211956, 0.546875, 0.452271, -0.750610, -1.098633, -0.793457, -2.380371
1211976, 0.536621, 0.425293, -0.729126, 0.366211, -1.220703, 0.183106
1211996, 0.528809, 0.409546, -0.746460, -0.244141, -1.953125, -1.953125
1212016, 0.525146, 0.425415, -0.749023, -0.549316, -1.647950, -1.586915
1212036, 0.536987, 0.431396, -0.748413, 0.122070, -1.098633, -1.098633
1212056, 0.521606, 0.437622, -0.754272, 0.732422, -1.342773, -0.915528
1212116, 0.531250, 0.429688, -0.749878, 1.159668, -1.647950, -0.427246
1212136, 0.531128, 0.420532, -0.747437, 1.220703, -2.014160, -1.220703
1212156, 0.531250, 0.410400, -0.742920, 0.366211, -1.953125, -1.647950
1212176, 0.526367, 0.432129, -0.747437, -0.305176, -1.281738, -2.441406
1212196, 0.528564, 0.435669, -0.752075, 0.305176, -1.831055, -2.563477
1212216, 0.520752, 0.430420, -0.753296, 0.061035, -1.953125, -1.953125
1212236, 0.521118, 0.429077, -0.756836, -0.244141, -1.953125, -1.647950
1212256, 0.516724, 0.423462, -0.753174, -0.305176, -1.281738, -1.464844
1212276, 0.516968, 0.426880, -0.753662, -0.427246, -1.342773, -1.647950
1212296, 0.518066, 0.426880, -0.754028, -0.732422, -0.671387, -1.342773
1212316, 0.523315, 0.433105, -0.748169, -0.427246, -0.976563, -1.770020
1212336, 0.525269, 0.427612, -0.744751, -0.549316, -0.671387, -2.075195
1212356, 0.527100, 0.438232, -0.748779, -0.488281, -1.403809, -1.403809
1212376, 0.522095, 0.440674, -0.752563, -0.183106, -1.586915, -0.976563
1212396, 0.523560, 0.435913, -0.747681, 0.610352, -1.586915, -1.159668
1212416, 0.527466, 0.422241, -0.743530, 0.793457, -1.647950, -2.014160
1212436, 0.520264, 0.421021, -0.745972, 0.122070, -1.342773, -2.807618
1212456, 0.515381, 0.424316, -0.749023, -0.549316, -0.915528, -3.479005
1212476, 0.514648, 0.442871, -0.757446, -1.220703, -0.976563, -3.112794
1212496, 0.514160, 0.458130, -0.755859, -0.305176, -0.915528, -2.014160
1212516, 0.518677, 0.445801, -0.753418, 1.220703, -1.464844, -2.014160
1212536, 0.514282, 0.424072, -0.754883, 0.366211, -1.037598, -2.197266
1212556, 0.515747, 0.430664, -0.748291, -1.281738, -0.061035, -2.685547
1212576, 0.519287, 0.439941, -0.745483, -0.915528, -0.549316, -3.845216
1212596, 0.513550, 0.443237, -0.750244, -0.366211, -0.427246, -3.417970
1212616, 0.515625, 0.444336, -0.752441, -0.366211, -0.244141, -2.746582
1212636, 0.516235, 0.433716, -0.743408, 0.122070, -0.976563, -3.295899
1212656, 0.512329, 0.440430, -0.757568, -0.244141, -0.488281, -3.967286
1212676, 0.507568, 0.447388, -0.752441, -1.098633, 0.061035, -2.502441
1212696, 0.514038, 0.447632, -0.745850, -0.793457, 0.976563, -2.014160
1212716, 0.516235, 0.443604, -0.744507, -0.915528, -0.061035, -2.563477
1212736, 0.504883, 0.455811, -0.758057, -0.549316, -0.427246, -2.014160
1212756, 0.512573, 0.452759, -0.749756, -0.488281, 0.610352, -0.976563
1212776, 0.517212, 0.448486, -0.745972, -0.122070, -0.061035, -1.098633
1212796, 0.517700, 0.442871, -0.744995, -0.305176, -0.366211, -1.220703
1212816, 0.512817, 0.450806, -0.747192, -0.793457, -0.183106, -0.793457
1212836, 0.512573, 0.446289, -0.745728, -0.427246, -0.122070, -1.647950
1212856, 0.506226, 0.442505, -0.749023, -1.037598, -0.183106, -2.502441
1212876, 0.510376, 0.454956, -0.751221, -1.037598, -0.549316, -2.258301
1212896, 0.515015, 0.454102, -0.746460, -0.305176, -0.671387, -2.197266
1212916, 0.508667, 0.452271, -0.746826, -0.793457, -0.793457, -2.197266
1212936, 0.515259, 0.457153, -0.742798, 0.183106, -0.915528, -1.464844
1212956, 0.509033, 0.449829, -0.746216, 0.549316, -1.037598, -1.220703
1212976, 0.504028, 0.444946, -0.747437, -0.061035, 0.244141, -0.610352
1212996, 0.512817, 0.447632, -0.748413, -0.305176, -0.122070, -1.159668
1213016, 0.510010, 0.455078, -0.742188, -1.037598, 0.061035, -1.464844
1213036, 0.513062, 0.460815, -0.741089, -0.244141, 0.000000, -1.525879
1213056, 0.513550, 0.457153, -0.743286, 0.427246, -0.488281, -1.647950
1213076, 0.503662, 0.448242, -0.750610, 0.061035, 0.366211, -1.281738
1213096, 0.515381, 0.441895, -0.754639, -1.831055, 1.464844, -1.770020
1213116, 0.506226, 0.460571, -0.732910, -0.793457, 0.122070, -2.258301
1213136, 0.509521, 0.458618, -0.747559, 0.000000, 0.549316, -1.831055
1213156, 0.512573, 0.459961, -0.755127, -1.342773, 0.305176, -2.685547
1213176, 0.496826, 0.461792, -0.730469, -0.793457, 0.427246, -1.403809
1213196, 0.512695, 0.454102, -0.744141, -0.915528, 0.427246, -1.525879
1213216, 0.510742, 0.467529, -0.745117, -1.098633, -0.244141, -1.464844
1213236, 0.506714, 0.462769, -0.741089, -0.305176, -0.183106, -1.220703
1213256, 0.512573, 0.458618, -0.743530, -0.976563, 0.183106, -1.464844
1213276, 0.510376, 0.456787, -0.731201, -0.732422, 0.366211, -1.953125
1213296, 0.509521, 0.454224, -0.739990, -0.488281, 0.671387, -1.403809
1213316, 0.509888, 0.472534, -0.736206, -1.464844, -0.244141, -2.136230
1213336, 0.507568, 0.476685, -0.731812, 0.427246, -0.671387, -1.281738
1213356, 0.510132, 0.464966, -0.742554, 0.793457, -0.793457, -0.610352
1213376, 0.509766, 0.460449, -0.735718, 0.549316, -0.732422, -0.305176
1213396, 0.516724, 0.462158, -0.739136, 0.244141, -0.610352, -0.854492
1213416, 0.506714, 0.472290, -0.739014, -0.061035, -0.793457, -0.488281
1213436, 0.508423, 0.470703, -0.737427, 0.427246, -0.244141, 0.549316
1213456, 0.509644, 0.462891, -0.740234, 0.305176, -0.549316, 0.427246
1213476, 0.505615, 0.459839, -0.743408, -0.244141, 0.061035, 0.549316
1213496, 0.512085, 0.461060, -0.735718, -0.671387, 0.244141, 0.122070
1213516, 0.516846, 0.466309, -0.736328, -0.610352, -0.305176, -0.610352
1213536, 0.510742, 0.465942, -0.732788, -0.427246, -1.281738, -0.915528
1213556, 0.506226, 0.452271, -0.737427, -0.549316, -0.671387, -1.403809
1213576, 0.504150, 0.461426, -0.737549, -2.197266, -0.549316, -1.342773
1213596, 0.509888, 0.471069, -0.731323, -1.159668, -0.671387, -0.793457
1213616, 0.505371, 0.458496, -0.739258, -1.403809, -0.610352, -0.671387
1213636, 0.510132, 0.442261, -0.732056, -2.624512, -0.366211, -1.647950
1213656, 0.520142, 0.425781, -0.727295, -5.249023, -0.366211, -3.173829
1213676, 0.515137, 0.419312, -0.710571, -7.080080, -1.037598, -4.516602
1213696, 0.510376, 0.377319, -0.725098, -15.258793, 0.183106, -8.850098
1213716, 0.493042, 0.421509, -0.719604, -20.812988, -1.220703, -12.451176
1213736, 0.471802, 0.451904, -0.733154, -23.315437, -2.197266, -15.869144
1213756, 0.423706, 0.484497, -0.718262, -25.756844, 7.995607, -15.258793
1213776, 0.462646, 0.507935, -0.722534, -25.878914, 19.409180, -18.920898
1213796, 0.498901, 0.543823, -0.730835, -26.000984, 16.845703, -22.155769
1213816, 0.486206, 0.578125, -0.719360, -22.338875, 11.718754, -22.094727
1213836, 0.463867, 0.606445, -0.707031, -20.202637, 11.169437, -21.179199
1213856, 0.446899, 0.794067, -0.635010, 1.953125, 28.381355, 4.638672
1213876, 0.539795, 0.541992, -0.680176, 1.220703, 12.268070, 4.455566
1213896, 0.597656, 0.549072, -0.639648, -2.075195, 11.413578, 0.549316
1213916, 0.604248, 0.541870, -0.669067, -0.915528, -2.075195, -4.272461
1213936, 0.508301, 0.551392, -0.657959, 0.549316, -2.746582, -5.615236
1213956, 0.536865, 0.544434, -0.679443, 0.000000, -7.324221, -3.845216
1213976, 0.513916, 0.552368, -0.680298, 0.854492, -16.479492, -0.122070
1213996, 0.486694, 0.537964, -0.692017, -0.183106, -16.540527, 4.882813
1214016, 0.475830, 0.534180, -0.679443, -2.868653, -9.094238, 11.474613
1214036, 0.500244, 0.534546, -0.661865, -9.521484, -1.098633, 22.460945
1214056, 0.570435, 0.579956, -0.618286, -12.084965, 5.615236, 24.475105
1214076, 0.547729, 0.564209, -0.632813, -12.329105, 8.422852, 23.376472
1214096, 0.556152, 0.578857, -0.659058, -11.840824, 7.507326, 19.897461
1214116, 0.518799, 0.571167, -0.697510, -13.000492, 5.249023, 16.052246
1214136, 0.522339, 0.570313, -0.668091, -13.488773, 2.075195, 14.221195
1214156, 0.509155, 0.567871, -0.665527, -13.366703, 4.028320, 10.498047
1214176, 0.528076, 0.578491, -0.664429, -10.253906, 5.126953, 4.211426
1214196, 0.515869, 0.581909, -0.671875, -11.596684, 8.178711, 0.305176
1214216, 0.537354, 0.569214, -0.655884, -8.850098, 7.507326, -3.173829
1214236, 0.547241, 0.598267, -0.671265, -8.300781, 3.234864, -8.056641
1214256, 0.571777, 0.622192, -0.672729, -6.530764, -12.756351, -21.118164
1214276, 0.524414, 0.525635, -0.673828, -4.638672, -18.920898, -26.489265
1214296, 0.476563, 0.501831, -0.656372, -0.793457, -14.160160, -25.085457
1214316, 0.509644, 0.529785, -0.672485, 0.915528, -9.643555, -21.789551
1214336, 0.458374, 0.520874, -0.639282, 1.220703, -3.540040, -15.380863
1214356, 0.553345, 0.579834, -0.643311, 2.685547, -3.417970, -12.207035
1214376, 0.513550, 0.567505, -0.633301, 4.394531, -6.408693, -13.427738
1214396, 0.545288, 0.574707, -0.609985, 5.004883, -8.117676, -10.559082
1214416, 0.520142, 0.564941, -0.617554, 3.173829, -6.713869, -5.737307
1214436, 0.565063, 0.587402, -0.607544, 0.732422, -5.371094, -0.610352
1214456, 0.535156, 0.590454, -0.644165, 4.028320, -19.653320, -3.173829
1214476, 0.497314, 0.579834, -0.679443, 2.990724, -27.465828, -3.234864
1214496, 0.557373, 0.584473, -0.682983, 0.976563, -41.992188, -3.479005
1214516, 0.485352, 0.592407, -0.670410, 0.122070, -56.213394, -4.272461
1214536, 0.299438, 0.570435, -0.700684, -7.629396, -38.024902, 6.652834
1214556, 0.378418, 0.601685, -0.650024, -25.634773, 0.549316, 35.522461
1214576, 0.563843, 0.621216, -0.614502, -23.193367, 4.150391, 30.395515
1214596, 0.501343, 0.624634, -0.679688, -15.930180, -3.967286, 14.953617
1214616, 0.405029, 0.595093, -0.724976, -17.822266, -4.089355, 13.122562
1214636, 0.402222, 0.603760, -0.711670, -16.235352, 1.892090, 9.460449
1214656, 0.433960, 0.614502, -0.689209, -14.892582, 3.417970, 7.080080
1214676, 0.485840, 0.624390, -0.706909, -19.653320, 3.540040, 4.333496
1214696, 0.525146, 0.728760, -0.555054, -19.592285, 10.620117, -3.662110
1214716, 0.483398, 0.542969, -0.719482, -11.474613, -3.845216, -8.911133
1214736, 0.499390, 0.708374, -0.564209, -19.226074, 14.465336, -15.075687
1214756, 0.448486, 0.553101, -0.728394, -10.070801, -9.948730, -16.540527
1214776, 0.481079, 0.660156, -0.541382, -11.901859, 8.605957, -20.751953
1214796, 0.373047, 0.545532, -0.742065, -2.929688, -2.014160, -14.404301
1214816, 0.447754, 0.597168, -0.612305, -5.065918, 6.591799, -12.329105
1214836, 0.478027, 0.631348, -0.615723, 5.859377, 2.868653, -16.906738
1214856, 0.493286, 0.625732, -0.592407, 16.540527, -3.356935, -24.292000
1214876, 0.471191, 0.591797, -0.575439, 25.817879, -7.568361, -26.306160
1214896, 0.461670, 0.594604, -0.621216, 27.099617, 1.770020, -17.883301
1214916, 0.501099, 0.593384, -0.582886, 34.240723, -7.141115, -17.883301
1214936, 0.482422, 0.597290, -0.716187, 25.695808, -8.422852, -8.483887
1214956, 0.474609, 0.605103, -0.560425, 23.132332, -10.437012, -5.554201
1214976, 0.412109, 0.654297, -0.663086, 28.442390, -1.220703, -4.516602
1214996, 0.441162, 0.702881, -0.766846, 12.634281, -5.798342, -5.676271
1215016, 0.382935, 0.647827, -0.696777, 6.408693, -11.352543, -5.615236
1215036, 0.313232, 0.621582, -0.707153, 3.417970, -1.770020, -1.586915
1215056, 0.389771, 0.610840, -0.713867, 2.075195, 5.004883, 2.868653
1215076, 0.416138, 0.615112, -0.699219, 0.427246, 6.347658, 3.601075
1215096, 0.479248, 0.638672, -0.676392, 1.281738, 5.676271, 2.868653
1215116, 0.477295, 0.733643, -0.699951, 6.347658, -2.685547, 2.075195
1215136, 0.374756, 0.977295, -0.914185, -15.502934, 21.972656, 26.916512
1215156, 0.628662, 1.503906, -0.246094, 79.101563, 3.112794, 83.557129
1215176, 0.667969, 0.610107, -0.541870, 143.249512, -4.516602, 91.247589
1215196, 0.320313, 0.173584, -0.807983, 97.717316, -16.540527, 84.289551
1215216, 0.400391, 0.409302, -0.737549, 70.983887, -6.469728, 73.120117
1215236, 0.380859, 0.400635, -0.876465, 76.721191, -3.906251, 61.218277
1215256, 0.309448, 0.323975, -0.908447, 69.702148, 6.164553, 61.767593
1215276, 0.399780, 0.308960, -0.860107, 66.406250, 11.535648, 63.903824
1215296, 0.463135, 0.196899, -0.858887, 61.767593, 3.601075, 54.443375
1215316, 0.439819, 0.125610, -0.856201, 55.969254, 10.131836, 45.043961
1215336, 0.431396, 0.153320, -0.847778, 51.208511, 13.549809, 38.024902
1215356, 0.475220, 0.095825, -0.873169, 41.442871, 14.465336, 19.592285
1215376, 0.502808, 0.118286, -0.821899, 31.616219, 14.648441, -1.892090
