timestamp,ax,ay,az,gx,gy,gz
1087153, 0.209595, 0.946289, -0.296997, 1.647950, -0.854492, -1.159668
1087173, 0.205566, 0.944946, -0.298096, 0.610352, -1.403809, -1.525879
1087193, 0.201294, 0.938843, -0.299316, -0.793457, -0.427246, -1.892090
1087213, 0.205566, 0.941406, -0.289551, -1.525879, -0.915528, -2.014160
1087233, 0.199829, 0.947388, -0.287354, -2.014160, -1.281738, -2.380371
1087253, 0.182617, 0.947632, -0.271240, -1.586915, 0.244141, -1.831055
1087273, 0.190796, 0.946777, -0.278564, -0.732422, 0.488281, -0.854492
1087293, 0.192505, 0.947510, -0.278809, -0.854492, 0.427246, -0.305176
1087313, 0.199951, 0.948730, -0.270508, -0.183106, 0.793457, -0.061035
1087333, 0.211792, 0.945679, -0.278442, 0.854492, 0.183106, -1.525879
1087353, 0.196167, 0.947510, -0.276245, 1.098633, 0.000000, -1.770020
1087373, 0.190186, 0.947998, -0.280884, 1.342773, -0.305176, -1.281738
1087393, 0.192017, 0.945557, -0.286377, 1.281738, -0.427246, -0.610352
1087413, 0.193848, 0.943359, -0.289063, 0.366211, -0.549316, -0.244141
1087433, 0.189331, 0.943848, -0.291748, -0.305176, -0.366211, 0.122070
1087453, 0.197266, 0.944702, -0.281616, -0.976563, 0.915528, 0.366211
1087473, 0.203613, 0.949341, -0.273315, -0.366211, 0.671387, 0.061035
1087493, 0.208008, 0.948364, -0.268921, 0.366211, 0.183106, -0.610352
1087513, 0.195435, 0.949097, -0.273071, 1.953125, -0.488281, -0.915528
1087533, 0.198730, 0.944458, -0.287964, 1.892090, -0.671387, -0.732422
1087553, 0.193970, 0.942749, -0.289307, 1.037598, -0.793457, -0.671387
1087573, 0.181641, 0.944580, -0.285278, 0.793457, -0.610352, 0.122070
1087593, 0.187866, 0.946045, -0.282593, 0.610352, 0.915528, 1.159668
1087613, 0.201538, 0.945068, -0.283936, 0.671387, 0.427246, 1.342773
1087633, 0.195923, 0.946411, -0.277832, 0.366211, 0.366211, 1.403809
1087653, 0.202759, 0.948486, -0.270874, 1.464844, 0.793457, 1.464844
1087673, 0.205322, 0.943970, -0.288330, 1.586915, 0.793457, 0.915528
1087693, 0.194946, 0.944702, -0.283203, 1.281738, 1.586915, 0.854492
1087713, 0.203125, 0.941284, -0.293457, 0.427246, 0.915528, 1.342773
1087733, 0.195801, 0.945679, -0.280640, 0.122070, 0.915528, 1.464844
1087753, 0.200317, 0.945435, -0.278320, 0.488281, 1.220703, 1.953125
1087773, 0.201416, 0.946777, -0.274902, 1.037598, 1.770020, 1.953125
1087793, 0.208862, 0.943115, -0.284058, 1.464844, 1.831055, 2.075195
1087813, 0.219604, 0.942627, -0.287720, 0.854492, 0.366211, 1.525879
1087833, 0.212402, 0.945068, -0.274536, 1.037598, -0.854492, 0.732422
1087853, 0.197144, 0.946411, -0.275024, 1.953125, -0.366211, 0.915528
1087873, 0.194336, 0.941406, -0.288452, 2.136230, 1.831055, 1.647950
1087893, 0.186279, 0.941772, -0.290527, 0.793457, 5.310059, 2.319336
1087913, 0.170288, 0.946045, -0.272461, 1.220703, 10.437012, 4.272461
1087933, 0.205688, 0.945557, -0.268555, 2.380371, 13.122562, 5.981447
1087953, 0.253784, 0.941772, -0.274414, 3.295899, 7.507326, 5.981447
1087973, 0.274048, 0.939453, -0.284180, 3.723145, -0.427246, 3.723145
1087993, 0.216797, 0.931152, -0.317871, 2.136230, -4.638672, 2.502441
1088013, 0.173462, 0.933594, -0.310547, -0.488281, -5.981447, 5.676271
1088033, 0.186035, 0.930908, -0.311279, -2.319336, -4.455566, 9.582520
1088053, 0.222900, 0.928589, -0.317017, -4.821777, -1.831055, 10.620117
1088073, 0.238403, 0.930176, -0.312012, -7.507326, -1.525879, 10.070801
1088093, 0.272461, 0.942871, -0.257568, -8.361816, -1.220703, 7.263186
1088113, 0.275513, 0.940674, -0.261719, -6.530764, -3.662110, 4.760742
1088133, 0.298828, 0.940918, -0.276367, -6.469728, -8.605957, 1.708985
1088153, 0.262451, 0.945557, -0.251953, -2.990724, -14.526371, -3.417970
1088173, 0.226318, 0.927490, -0.292236, -4.516602, -10.681152, -3.601075
1088193, 0.237915, 0.938965, -0.258179, -6.591799, -3.967286, -3.601075
1088213, 0.244873, 0.947876, -0.243896, -4.516602, -2.502441, -4.394531
1088233, 0.225952, 0.945313, -0.266724, -3.784181, -2.319336, -5.310059
1088253, 0.201782, 0.952515, -0.250854, -3.295899, -1.770020, -3.479005
1088273, 0.173218, 0.954712, -0.244629, 3.234864, -1.831055, 0.061035
1088293, 0.208496, 0.945190, -0.264404, 5.981447, 1.708985, 0.183106
1088313, 0.216064, 0.927734, -0.302246, 3.234864, 3.601075, 2.136230
1088333, 0.251831, 0.935791, -0.276733, -0.549316, 3.845216, 3.112794
1088353, 0.265991, 0.944092, -0.254761, -1.342773, 3.479005, 1.831055
1088373, 0.284912, 0.941284, -0.268921, -0.671387, 2.136230, -1.586915
1088413, 0.225464, 0.941406, -0.272461, -3.662110, -3.601075, -6.713869
1088453, 0.216797, 0.956421, -0.234863, 14.038090, 2.624512, -6.286623
1088473, 0.241821, 0.933228, -0.298828, -1.342773, 2.075195, -5.187988
1088493, 0.243286, 0.938965, -0.282227, -5.004883, -0.732422, -6.713869
1088513, 0.234375, 0.948486, -0.257202, -6.652834, -2.746582, -6.958010
1088533, 0.223022, 0.952637, -0.244507, -5.615236, -3.356935, -8.422852
1088553, 0.208862, 0.950439, -0.250977, -5.859377, -1.770020, -8.666992
1088573, 0.203613, 0.954346, -0.237671, -5.310059, -0.915528, -8.544922
1088593, 0.211304, 0.959839, -0.219971, -3.540040, -1.647950, -8.544922
1088613, 0.212280, 0.959839, -0.223755, -1.098633, -3.356935, -8.972168
1088633, 0.203857, 0.960083, -0.228271, 0.610352, -4.699707, -9.460449
1088653, 0.161011, 0.961548, -0.226563, 3.601075, -1.831055, -8.239746
1088673, 0.173218, 0.957153, -0.242798, 5.065918, -1.159668, -6.164553
1088693, 0.171387, 0.953491, -0.268188, 4.394531, -2.685547, -4.638672
1088713, 0.156738, 0.955078, -0.256470, 3.723145, -0.854492, -3.051759
1088733, 0.167969, 0.954956, -0.258911, 3.845216, -0.305176, -0.915528
1088753, 0.167236, 0.954834, -0.260132, 3.295899, 1.464844, 0.549316
1088773, 0.194946, 0.951904, -0.267456, 3.112794, 1.647950, 0.671387
1088793, 0.206543, 0.953003, -0.269653, 1.831055, 2.075195, -0.610352
1088813, 0.205933, 0.952637, -0.258667, 1.708985, 0.122070, -1.831055
1088833, 0.188477, 0.940918, -0.262573, 1.220703, -0.854492, -2.502441
1088853, 0.170288, 0.967896, -0.267456, 0.610352, -0.610352, -0.610352
1088873, 0.161011, 0.944458, -0.264160, 0.427246, 0.671387, 0.732422
1088893, 0.175659, 0.952515, -0.265747, 0.000000, 2.685547, 1.831055
1088913, 0.195435, 0.956909, -0.258179, -0.244141, 2.380371, 1.770020
1088933, 0.210815, 0.951416, -0.264648, 0.000000, 0.854492, 1.037598
1088953, 0.205444, 0.951782, -0.272461, -1.159668, -0.793457, -0.915528
1088973, 0.170044, 0.954468, -0.258789, -1.525879, -1.220703, -0.305176
1088993, 0.177246, 0.943237, -0.292725, -2.807618, 0.488281, 0.915528
1089013, 0.238892, 0.938477, -0.315186, -7.080080, -2.197266, 0.061035
1089033, 0.281860, 0.940308, -0.306274, -15.502934, -12.817387, -7.385256
1089053, 0.231445, 0.989868, -0.129639, -2.929688, -27.038582, -9.277344
1089073, 0.167114, 0.962769, -0.153687, 17.944336, -26.977547, -1.770020
1089093, 0.247192, 0.928101, -0.270020, 27.954109, -26.733406, 4.272461
1089113, 0.246338, 0.912720, -0.352905, 22.766121, -28.076180, 6.408693
1089133, 0.235596, 0.920776, -0.331909, 13.488773, -27.893074, 9.216309
1089153, 0.232788, 0.929321, -0.288696, 6.347658, -24.536140, 11.291508
1089173, 0.251221, 0.952393, -0.222168, 5.371094, -25.146492, 16.113281
1089193, 0.202515, 0.948853, -0.229492, 4.882813, -28.808601, 19.653320
1089213, 0.173462, 0.961548, -0.201782, -1.892090, -20.385742, 23.315437
1089233, 0.207764, 0.987427, -0.160278, -0.366211, -22.521980, 21.789551
1089253, 0.169922, 0.983032, -0.176636, 2.563477, -25.390633, 20.996094
1089273, 0.177246, 0.976685, -0.185181, 5.554201, -34.912109, 23.620613
1089293, 0.116699, 0.974731, -0.229492, 5.981447, -29.846199, 23.803719
1089313, 0.123657, 0.959717, -0.285645, 3.051759, -22.094727, 24.047859
1089333, 0.152832, 0.966064, -0.304199, -1.831055, -17.883301, 22.094727
1089353, 0.132690, 0.947632, -0.353760, -7.324221, -20.080566, 17.822266
1089373, 0.082764, 0.962402, -0.322266, -11.657719, -15.747074, 16.662598
1089393, 0.072754, 0.962646, -0.315063, -10.192871, -13.427738, 17.150879
1089413, 0.097534, 0.947266, -0.365967, -13.305668, 4.150391, 16.723633
1089433, 0.146973, 0.950439, -0.393188, -18.981934, 10.192871, 11.291508
1089453, 0.141602, 0.944336, -0.401489, -27.282722, 12.146000, 2.868653
1089473, 0.154419, 0.949463, -0.381714, -31.250008, 9.277344, -4.089355
1089493, 0.199341, 0.959229, -0.367310, -32.165527, 6.652834, -13.671879
1089513, 0.226685, 0.956055, -0.359741, -32.287598, 4.089355, -29.052742
1089533, 0.211426, 0.943848, -0.340210, -29.846199, 4.760742, -41.137695
1089553, 0.154541, 0.937378, -0.322266, -23.986824, 0.854492, -48.217789
1089573, 0.033081, 0.944702, -0.250122, -17.883301, 6.958010, -38.757324
1089593, 0.013916, 0.948242, -0.169312, -6.164553, 34.729004, -2.807618
1089613, 0.213989, 0.929199, -0.146362, -2.685547, 46.081558, 21.484375
1089633, 0.440430, 0.925659, -0.148682, -0.976563, 42.480469, 29.174812
1089653, 0.618896, 0.907715, -0.149658, -2.014160, 29.541023, 21.972656
1089673, 0.680054, 0.904663, -0.110718, -4.394531, 16.357422, 10.375977
1089693, 0.718506, 0.927368, -0.115234, -8.789063, -4.455566, -1.281738
1089713, 0.701538, 0.958862, -0.111694, -4.333496, -36.376953, -35.644531
1089733, 0.514160, 0.949341, -0.148682, -1.037598, -73.791504, -59.143082
1089753, 0.302856, 0.934937, -0.195923, -0.976563, -93.078644, -70.373535
1089773, -0.064697, 0.915283, -0.172363, -2.929688, -75.134277, -54.504410
1089793, -0.092041, 0.964233, -0.115112, 2.380371, -14.953617, 4.272461
1089813, 0.080933, 0.955444, -0.148315, 2.075195, 11.779789, 32.592773
1089833, 0.307251, 0.981445, -0.137573, 4.333496, 7.507326, 35.461426
1089853, 0.372803, 0.979126, -0.201294, 3.112794, -8.239746, 17.395020
1089873, 0.310791, 0.976929, -0.184082, -1.708985, -26.306160, 1.098633
1089893, 0.067139, 0.976563, -0.158691, -3.479005, -34.973145, 0.549316
1089913, 0.083008, 0.998657, -0.104614, -2.685547, -25.085457, 9.216309
1089933, 0.013550, 0.984375, -0.160889, -2.258301, -21.606445, 13.732914
1089953, 0.083252, 1.000488, -0.156250, -4.333496, -12.329105, 15.991215
1089973, 0.049561, 0.994385, -0.190918, -5.249023, -13.549809, 12.084965
1089993, 0.054443, 1.000854, -0.139282, -3.601075, -13.305668, 13.061527
1090013, 0.047607, 0.992432, -0.167358, -1.770020, -11.291508, 12.878422
1090033, 0.047729, 0.998657, -0.178833, -1.586915, -9.521484, 13.549809
1090053, 0.058594, 0.990967, -0.195435, -1.953125, -9.094238, 14.892582
1090073, 0.052856, 0.985107, -0.210327, -1.586915, -7.080080, 15.625004
1090093, 0.089111, 0.967651, -0.227417, -3.051759, -1.708985, 17.456055
1090113, 0.126465, 0.981689, -0.233887, -4.272461, -0.122070, 17.395020
1090133, 0.160889, 0.952271, -0.273560, -9.887695, -0.915528, 16.235352
1090153, 0.177368, 0.968994, -0.219360, -12.573246, -6.103518, 14.831547
1090173, 0.130493, 0.974976, -0.188721, -6.042482, -4.577637, 17.211914
1090193, 0.122192, 0.965576, -0.205200, -1.892090, 2.197266, 21.667480
1090213, 0.174683, 0.960938, -0.228882, -0.549316, 7.385256, 25.024422
1090233, 0.235596, 0.952271, -0.229126, 1.464844, 6.042482, 24.902351
1090253, 0.250610, 0.944092, -0.283691, -0.610352, 7.873537, 22.338875
