timestamp,ax,ay,az,gx,gy,gz
1292284, 0.195557, 0.890869, -0.431885, -0.976563, 5.493164, 9.094238
1292304, 0.217041, 0.894897, -0.414917, -1.770020, 5.615236, 8.422852
1292324, 0.226563, 0.896362, -0.408691, -1.037598, 3.112794, 7.812502
1292344, 0.230957, 0.890991, -0.428711, -0.793457, 3.417970, 6.103518
1292364, 0.228149, 0.889526, -0.427856, -2.441406, 2.380371, 5.004883
1292384, 0.228760, 0.902588, -0.388916, -1.586915, -0.366211, 4.760742
1292404, 0.226318, 0.893677, -0.387451, 1.159668, -1.586915, 4.028320
1292424, 0.221924, 0.901733, -0.405396, 2.624512, -0.122070, 3.173829
1292444, 0.227539, 0.890991, -0.417969, 2.990724, -0.671387, 2.990724
1292464, 0.219604, 0.885742, -0.428711, 2.441406, 0.244141, 2.563477
1292484, 0.223633, 0.885986, -0.432251, 1.037598, 0.122070, 2.563477
1292504, 0.222290, 0.890747, -0.420898, 0.244141, -0.549316, 3.112794
1292524, 0.235474, 0.890015, -0.417969, 0.122070, -0.915528, 2.746582
1292544, 0.234741, 0.892578, -0.411255, 0.549316, -0.976563, 1.770020
1292564, 0.226929, 0.888916, -0.418457, 0.854492, -1.281738, 1.403809
1292584, 0.215210, 0.888916, -0.417969, 0.732422, -2.136230, 2.197266
1292604, 0.218262, 0.888916, -0.419312, 0.732422, -1.220703, 3.112794
1292624, 0.238892, 0.890015, -0.419678, 0.610352, -0.488281, 2.807618
1292644, 0.236572, 0.889282, -0.411499, 1.098633, -3.173829, 2.319336
1292664, 0.225952, 0.886475, -0.429199, 0.915528, -2.868653, 2.441406
1292684, 0.224487, 0.884277, -0.431030, -0.671387, -0.427246, 2.868653
1292704, 0.240723, 0.888428, -0.416870, -1.098633, 0.183106, 2.685547
1292724, 0.248535, 0.890747, -0.409180, -0.427246, -1.342773, 1.708985
1292744, 0.234863, 0.890991, -0.408325, 0.427246, -2.014160, 1.098633
1292764, 0.226563, 0.889648, -0.405396, 1.403809, -0.610352, 0.976563
1292784, 0.229858, 0.888428, -0.417480, 2.075195, 0.549316, 1.342773
1292804, 0.235962, 0.885742, -0.426147, 1.708985, 0.549316, 1.464844
1292824, 0.241699, 0.883789, -0.427368, 1.098633, 0.305176, 1.098633
1292844, 0.238037, 0.884644, -0.423462, 0.549316, -0.122070, 0.793457
1292864, 0.234619, 0.886597, -0.417969, 0.610352, -0.732422, 0.915528
1292884, 0.230591, 0.886841, -0.419800, 0.915528, -1.159668, 1.525879
1292904, 0.237305, 0.883667, -0.425537, 0.671387, -1.342773, 2.014160
1292924, 0.239014, 0.883667, -0.424072, 0.305176, -1.953125, 2.075195
1292944, 0.240356, 0.884277, -0.422241, 0.122070, -2.807618, 2.197266
1292964, 0.238159, 0.886597, -0.416504, 0.061035, -2.441406, 2.075195
1292984, 0.234863, 0.888428, -0.413330, 0.793457, -1.220703, 2.014160
1293004, 0.218140, 0.887573, -0.413940, 1.403809, 0.671387, 2.746582
1293024, 0.218750, 0.888306, -0.418579, 1.892090, 2.563477, 4.394531
1293044, 0.228027, 0.888916, -0.411011, 2.502441, 4.333496, 5.554201
1293064, 0.252197, 0.895752, -0.382202, 5.676271, 4.394531, 6.286623
1293084, 0.252441, 0.891113, -0.381348, 9.643555, 6.835939, 5.371094
1293104, 0.252075, 0.890137, -0.410400, 12.207035, 9.155273, 5.065918
1293124, 0.273682, 0.883057, -0.430664, 12.939457, 10.559082, 4.699707
1293144, 0.289917, 0.868896, -0.431030, 13.366703, 3.356935, 4.394531
1293164, 0.279785, 0.886597, -0.350098, 23.681648, -12.207035, 6.713869
1293184, 0.250244, 0.871338, -0.430054, 29.357918, -12.634281, 5.859377
1293204, 0.253540, 0.853516, -0.558350, 23.498543, -0.549316, 2.441406
1293224, 0.279297, 0.878784, -0.572388, 13.061527, 7.080080, -1.831055
1293244, 0.286743, 0.877808, -0.505737, 8.728027, -2.380371, -3.845216
1293264, 0.236572, 0.822266, -0.486938, 6.835939, -5.493164, -6.286623
1293284, 0.210693, 0.807251, -0.484375, 4.211426, 2.563477, -5.737307
1293304, 0.203979, 0.815308, -0.490356, 1.525879, 8.178711, -2.563477
1293324, 0.244263, 0.844971, -0.467407, 0.915528, 11.474613, 1.220703
1293344, 0.298340, 0.866211, -0.460693, 2.929688, 9.765625, 0.122070
1293364, 0.311768, 0.850220, -0.482544, 2.258301, 4.882813, -0.854492
1293384, 0.318481, 0.827026, -0.476685, -0.976563, -2.319336, -0.915528
1293404, 0.300781, 0.835449, -0.470093, -3.906251, -6.469728, -1.831055
1293424, 0.287354, 0.850220, -0.446655, -3.051759, -7.873537, -2.685547
1293444, 0.266968, 0.833862, -0.466553, 0.793457, -10.925293, -3.112794
1293464, 0.264648, 0.830933, -0.513794, -2.746582, -9.033203, -5.859377
1293484, 0.230103, 0.829834, -0.523193, -8.117676, -9.033203, -9.216309
1293504, 0.204712, 0.818726, -0.511230, -13.916019, -7.202150, -8.544922
1293524, 0.226440, 0.832031, -0.484253, -16.601563, -5.065918, -5.859377
1293544, 0.234863, 0.924683, -0.470215, -15.563969, -5.371094, -2.746582
1293564, 0.276245, 0.879395, -0.456543, -13.244633, -11.596684, -1.098633
1293584, 0.287720, 0.860962, -0.475342, -15.258793, -16.052246, -4.821777
1293604, 0.245850, 0.882690, -0.417236, -14.892582, -16.723633, -7.446291
1293624, 0.204346, 0.892456, -0.432251, -12.084965, -17.150879, -6.713869
1293644, 0.161133, 0.887451, -0.430908, -11.901859, -13.122562, -0.854492
1293664, 0.186279, 0.890869, -0.423462, -10.620117, -10.437012, 2.807618
1293684, 0.222656, 0.892944, -0.420044, -9.155273, -7.812502, 3.356935
1293704, 0.255371, 0.889282, -0.446655, -8.789063, -7.141115, 0.915528
1293724, 0.244019, 0.884521, -0.442261, -10.375977, -12.084965, -0.793457
1293744, 0.203735, 0.897217, -0.415161, -10.314941, -14.709476, -0.671387
1293764, 0.177490, 0.905518, -0.380737, -7.629396, -11.779789, 1.037598
1293784, 0.177856, 0.903076, -0.379761, -3.723145, -6.042482, 2.868653
1293804, 0.211792, 0.900513, -0.388062, -0.610352, -3.479005, 3.601075
1293824, 0.231812, 0.893188, -0.421387, 1.586915, -7.324221, 2.929688
1293844, 0.213623, 0.891479, -0.418213, 1.586915, -9.643555, 2.502441
1293864, 0.204712, 0.890625, -0.421875, 2.380371, -9.216309, 2.929688
1293884, 0.194458, 0.889038, -0.437134, 2.014160, -5.493164, 3.234864
1293904, 0.200806, 0.876343, -0.445801, 0.732422, -2.136230, 3.845216
1293924, 0.185913, 0.895874, -0.440552, -0.732422, -0.305176, 5.004883
1293944, 0.198608, 0.885864, -0.425903, -0.793457, 1.525879, 6.652834
1293964, 0.197754, 0.883179, -0.437378, -1.831055, 6.225588, 7.385256
1293984, 0.212769, 0.891357, -0.411743, -1.647950, 10.375977, 7.690432
1294004, 0.233032, 0.893433, -0.411499, -0.671387, 12.084965, 7.568361
1294024, 0.287720, 0.890015, -0.402832, 1.586915, 8.850098, 4.455566
1294044, 0.283081, 0.888184, -0.411743, 2.624512, 2.990724, 1.098633
1294064, 0.253784, 0.884521, -0.422119, 3.173829, -1.159668, -0.122070
1294084, 0.229004, 0.879761, -0.443237, 1.892090, -1.464844, -0.427246
1294104, 0.202026, 0.882935, -0.431030, 0.671387, 1.708985, 0.732422
1294124, 0.230469, 0.889526, -0.414063, 0.854492, 4.028320, 2.380371
1294144, 0.265259, 0.880615, -0.431763, 0.793457, 4.150391, 1.403809
1294164, 0.297607, 0.881226, -0.429443, -0.061035, 1.037598, -1.403809
1294184, 0.339233, 0.879395, -0.446411, -1.037598, -6.042482, -6.835939
1294204, 0.339478, 0.870605, -0.463867, -6.103518, -20.324707, -16.906738
1294224, 0.343384, 0.877075, -0.451782, -9.216309, -35.156250, -22.583015
1294244, 0.309326, 0.854492, -0.442017, -11.535648, -51.147476, -28.259285
1294264, 0.136353, 0.872437, -0.311890, -3.234864, -39.123535, -11.535648
1294284, 0.125977, 0.868530, -0.343506, 6.896975, -19.348145, 9.704590
1294304, 0.234253, 0.874146, -0.411377, 8.605957, 1.831055, 24.230965
1294324, 0.295166, 0.866211, -0.419067, 4.943848, 1.708985, 29.357918
1294344, 0.357788, 0.910522, -0.405762, 1.647950, -9.887695, 24.902351
1294364, 0.281006, 0.893677, -0.386108, 0.122070, -15.380863, 21.850586
1294384, 0.232666, 0.905762, -0.337646, -0.915528, -17.150879, 32.592773
1294404, 0.182983, 0.926147, -0.351563, -9.155273, -10.314941, 42.358398
1294424, 0.209473, 0.954590, -0.287109, -8.483887, -15.625004, 40.771484
1294444, 0.171387, 0.972290, -0.291016, -4.150391, -16.784668, 35.339355
1294464, 0.171631, 0.939087, -0.355835, -4.455566, -11.779789, 33.813477
1294484, 0.177856, 0.947876, -0.394531, -5.432129, -21.240234, 27.954109
1294504, 0.135010, 0.933350, -0.413452, -8.911133, -24.963387, 24.353035
1294524, 0.062622, 0.918579, -0.444824, -9.887695, -25.146492, 22.766121
1294544, 0.042114, 0.904663, -0.501343, -10.375977, -12.512211, 23.315437
1294564, 0.052368, 0.893311, -0.539917, -12.329105, 1.281738, 22.583015
1294584, 0.152344, 0.861328, -0.567627, -21.301270, 17.272949, 21.179199
1294604, 0.161133, 0.897705, -0.522949, -26.489265, 18.188477, 15.869144
1294624, 0.154785, 0.922729, -0.434082, -24.841316, 13.854984, 9.887695
1294644, 0.167847, 0.924438, -0.404175, -15.502934, 17.456055, 4.272461
1294664, 0.269653, 0.915283, -0.416748, -6.347658, 16.052246, -5.859377
1294684, 0.244141, 0.895386, -0.412476, 3.356935, 19.348145, -14.038090
1294704, 0.258667, 0.871094, -0.464600, 5.126953, 20.568848, -18.554688
1294724, 0.238892, 0.879272, -0.414673, 10.986328, 27.343758, -23.437508
1294744, 0.240112, 0.829956, -0.433105, 13.183598, 41.503906, -19.653320
1294764, 0.317139, 0.830933, -0.392334, 10.437012, 58.898941, -5.187988
1294784, 0.518677, 0.798706, -0.349854, 5.432129, 58.410660, 4.516602
1294804, 0.614624, 0.784180, -0.258301, 2.929688, 53.894058, 12.329105
1294824, 0.680908, 0.749756, -0.245972, -1.953125, 51.635757, 23.620613
1294844, 0.955200, 0.818359, -0.229248, -12.695316, 27.587898, 26.550301
1294864, 1.109253, 0.899292, -0.150757, -0.793457, -27.587898, -22.399910
1294884, 0.940430, 0.857056, -0.237915, 8.972168, -85.998535, -63.537613
1294904, 0.653442, 0.816528, -0.282959, 12.573246, -125.976593, -90.332062
1294924, 0.146729, 0.782104, -0.329102, 8.178711, -129.089355, -76.538086
1294944, -0.174438, 0.809326, -0.314209, -8.056641, -72.570801, -16.601563
1294964, 0.082642, 0.907227, -0.204346, -8.300781, 11.047363, 50.964371
1294984, 0.319458, 0.916382, -0.294678, -11.901859, 38.146973, 63.720718
1295004, 0.516724, 0.935425, -0.335571, -11.779789, 3.601075, 41.564941
1295024, 0.367554, 0.942871, -0.335205, -19.775391, -18.554688, 28.564461
1295044, 0.313721, 1.005615, -0.248535, -11.840824, -40.466309, 9.765625
1295064, 0.066528, 0.977783, -0.346436, -5.493164, -36.560059, -4.394531
1295084, -0.031860, 0.993652, -0.337524, -2.624512, -29.113777, -5.004883
1295104, -0.103882, 0.952026, -0.398071, -1.831055, -16.479492, 1.098633
1295124, -0.130371, 0.947388, -0.411743, -6.408693, -0.061035, 14.770512
1295144, -0.042847, 0.942261, -0.399292, -13.244633, 25.817879, 30.212410
1295164, 0.198730, 0.934448, -0.374023, -16.723633, 26.489265, 28.625496
1295184, 0.265259, 0.928955, -0.383667, -14.099125, 19.226074, 21.850586
1295204, 0.267700, 0.890015, -0.420654, -14.953617, 7.507326, 18.493652
1295224, 0.258301, 0.896240, -0.384644, -14.953617, 7.934572, 16.052246
1295244, 0.286865, 0.883667, -0.382813, -13.061527, 13.916019, 15.808109
1295264, 0.371704, 0.865723, -0.414429, -10.437012, 12.756351, 10.559082
1295284, 0.370483, 0.853638, -0.405640, -6.896975, 10.070801, 6.591799
1295304, 0.407227, 0.846191, -0.451416, -6.286623, 6.835939, 4.150391
1295324, 0.335815, 0.841064, -0.419067, -4.150391, 5.615236, 1.220703
1295344, 0.305176, 0.845825, -0.426514, 0.427246, 16.784668, 6.774904
1295364, 0.383057, 0.861816, -0.431641, 2.319336, 22.094727, 5.615236
1295384, 0.400391, 0.850342, -0.436401, 4.699707, 22.216805, -1.770020
1295404, 0.444214, 0.850708, -0.439941, 4.028320, 20.874023, -9.033203
1295424, 0.451538, 0.861450, -0.400146, 7.995607, 17.578125, -18.066406
1295444, 0.405151, 0.855835, -0.390259, 13.610844, 12.268070, -24.353035
1295464, 0.353516, 0.851074, -0.390137, 17.822266, 12.268070, -25.024422
1295484, 0.296997, 0.836060, -0.354248, 20.263672, 21.667480, -18.066406
1295504, 0.377686, 0.840942, -0.344116, 16.357422, 32.043457, -9.155273
1295524, 0.492920, 0.823486, -0.272583, 4.699707, 42.297363, 2.624512
1295544, 0.584229, 0.880371, -0.163208, 7.629396, 30.883797, 0.671387
1295564, 0.609375, 0.886230, -0.157349, 15.075687, 12.023930, -6.774904
1295584, 0.546265, 0.881714, -0.172363, 18.554688, -4.150391, -12.878422
1295604, 0.503540, 0.898926, -0.197144, 13.244633, -14.709476, -16.845703
1295624, 0.393799, 0.933594, -0.207153, 3.601075, -16.845703, -18.310547
1295644, 0.399292, 0.939087, -0.166748, -2.502441, -19.409180, -20.324707
1295664, 0.325439, 0.952759, -0.143311, 1.953125, -21.362305, -22.888191
1295684, 0.211182, 0.956055, -0.105225, 17.822266, -17.272949, -19.165039
1295704, 0.120728, 0.928589, -0.203369, 34.606934, -12.268070, -6.652834
1295724, 0.149902, 0.874268, -0.385742, 40.588379, 3.112794, 14.465336
1295744, 0.246460, 0.842896, -0.482544, 34.545898, 11.840824, 21.972656
1295764, 0.352661, 0.831177, -0.508301, 24.230965, 17.456055, 22.399910
1295784, 0.413208, 0.829956, -0.508789, 14.282230, 16.174316, 17.822266
1295804, 0.418701, 0.830566, -0.492065, 4.577637, 8.911133, 13.061527
1295824, 0.410278, 0.849365, -0.422363, -0.427246, 3.784181, 8.728027
1295844, 0.370361, 0.857056, -0.394897, -1.342773, 4.150391, 5.493164
1295864, 0.378906, 0.858032, -0.391846, -1.647950, 5.920412, 3.906251
1295884, 0.417236, 0.856201, -0.395508, -2.014160, 2.990724, 0.671387
1295904, 0.381470, 0.858887, -0.392090, -3.845216, -1.342773, -3.967286
1295924, 0.361328, 0.862793, -0.371582, -3.051759, -1.037598, -5.249023
1295944, 0.348022, 0.865601, -0.367432, -1.953125, -0.793457, -5.126953
1295964, 0.334595, 0.868774, -0.351685, 0.183106, -0.732422, -4.150391
1295984, 0.330200, 0.874146, -0.350220, 3.112794, 1.220703, -2.868653
1296004, 0.350342, 0.868408, -0.367798, 5.432129, 1.831055, -2.075195
