timestamp,ax,ay,az,gx,gy,gz
144396, 0.250977, 0.930298, -0.342041, 4.333496, 18.493652, 2.197266
144416, 0.257324, 0.924438, -0.358032, 2.990724, 11.169437, -0.061035
144436, 0.231812, 0.934326, -0.332520, 2.502441, 4.150391, -1.159668
144456, 0.236816, 0.938354, -0.286621, 7.629396, -9.948730, -1.220703
144476, 0.210083, 0.936401, -0.327881, 11.047363, -12.390141, -2.014160
144496, 0.196289, 0.925171, -0.336426, 13.122562, -5.187988, -4.760742
144516, 0.203857, 0.931763, -0.372681, 14.526371, -5.126953, -8.605957
144536, 0.193604, 0.925903, -0.412231, 12.817387, -13.916019, -10.986328
144556, 0.143799, 0.931641, -0.401733, 10.437012, -16.540527, -7.202150
144576, 0.125977, 0.902954, -0.387817, 6.286623, -14.648441, -1.770020
144596, 0.141968, 0.897583, -0.394165, 2.685547, -6.835939, 0.244141
144616, 0.168091, 0.913818, -0.392334, 1.098633, -3.417970, 2.807618
144636, 0.229126, 0.930176, -0.366699, 2.197266, -5.310059, 1.953125
144656, 0.233887, 0.933350, -0.352905, 5.615236, -9.399414, 1.220703
144676, 0.205688, 0.910278, -0.360474, 8.483887, -10.192871, 3.112794
144696, 0.195557, 0.890747, -0.389282, 8.178711, -7.141115, 4.028320
144716, 0.223999, 0.887573, -0.406128, 3.295899, -4.638672, 3.051759
144736, 0.238892, 0.888550, -0.407837, 1.037598, -8.178711, -1.098633
144756, 0.205078, 0.902466, -0.406250, -0.915528, -11.230473, -3.112794
144776, 0.163330, 0.921509, -0.384277, -1.098633, -8.178711, -1.953125
144796, 0.161499, 0.933350, -0.369995, 1.159668, -5.187988, 0.732422
144816, 0.177734, 0.923950, -0.380981, 2.929688, -3.967286, 2.014160
144836, 0.195557, 0.908203, -0.399170, 1.770020, -4.333496, 1.342773
144856, 0.191772, 0.903687, -0.398071, -0.915528, -5.920412, -1.647950
144876, 0.166382, 0.916016, -0.381958, -1.953125, -5.859377, -2.624512
144896, 0.145264, 0.924438, -0.370239, -0.610352, -4.455566, 15.258793
144916, 0.157471, 0.929565, -0.369995, 3.662110, -0.061035, 4.211426
144936, 0.188965, 0.916626, -0.389038, 5.126953, 0.305176, 4.638672
144956, 0.203857, 0.904175, -0.406494, 3.723145, -1.281738, 2.380371
144976, 0.189819, 0.898315, -0.416748, 1.464844, -2.136230, -0.549316
144996, 0.175049, 0.904297, -0.414917, -0.305176, -1.098633, -2.075195
145016, 0.165039, 0.933716, -0.397705, 0.244141, 2.136230, -1.037598
145036, 0.175903, 0.942383, -0.379761, 3.723145, 2.624512, 1.403809
145056, 0.193115, 0.921997, -0.402588, 6.103518, 2.136230, 2.258301
145116, 0.187744, 0.936646, -0.403442, 4.516602, 1.770020, 3.112794
145136, 0.194580, 0.936646, -0.408081, 7.629396, 0.671387, 0.915528
145156, 0.169800, 0.926514, -0.425537, 10.070801, 0.305176, -0.793457
145176, 0.167847, 0.912598, -0.454346, 10.498047, 0.000000, -2.868653
145196, 0.181885, 0.925171, -0.466431, 11.352543, -0.488281, -6.103518
145216, 0.169189, 0.954346, -0.471191, 16.601563, -3.662110, -9.521484
145236, 0.126953, 0.946899, -0.487305, 23.681648, -5.187988, -11.474613
145256, 0.090942, 0.915405, -0.534912, 26.062019, -1.403809, -14.099125
145276, 0.065186, 0.885620, -0.562012, 24.597176, 6.286623, -14.343266
145296, 0.054199, 0.873535, -0.546387, 25.207527, 9.094238, -10.375977
145316, 0.062012, 0.850830, -0.552246, 29.235847, 15.808109, -5.920412
145336, 0.084839, 0.831299, -0.543701, 32.348633, 24.414070, -3.906251
145356, 0.129395, 0.793823, -0.544800, 35.644531, 29.296883, -8.300781
145376, 0.145874, 0.777832, -0.576782, 34.545898, 27.587898, -16.540527
145396, 0.126099, 0.755249, -0.583252, 31.372078, 25.146492, -21.606445
145416, 0.116211, 0.729370, -0.548462, 29.602058, 22.033691, -20.385742
145436, 0.088867, 0.699951, -0.550659, 26.916512, 21.667480, -15.686039
145456, 0.068970, 0.722900, -0.553345, 20.996094, 29.174812, -8.911133
145476, 0.128540, 0.770874, -0.499023, 10.375977, 41.870117, -7.080080
145496, 0.189331, 0.775757, -0.453247, 3.540040, 46.386734, -9.887695
145516, 0.234375, 0.806274, -0.397217, 0.732422, 48.767105, -12.451176
145536, 0.286743, 0.837646, -0.359741, -1.098633, 41.870117, -14.648441
145556, 0.291504, 0.822632, -0.352051, -5.493164, 32.043457, -15.319828
145576, 0.260986, 0.810059, -0.389893, -17.333984, 23.010262, -12.023930
145596, 0.223267, 0.826660, -0.374634, -35.400391, 17.761230, -7.751467
145616, 0.179810, 0.834595, -0.307007, -45.837418, 20.507813, -5.981447
145636, 0.168213, 0.913452, -0.267212, -46.386734, 30.395515, -4.333496
145656, 0.356445, 1.822021, -0.202759, -11.901859, 5.859377, 21.301270
145676, 0.636597, 0.845581, -0.400879, 8.728027, -21.789551, -13.305668
145696, 0.330200, 0.832275, -0.688599, -8.850098, -46.325699, -29.052742
145716, 0.192749, 0.854736, -0.468628, -19.226074, -55.419937, -30.090340
145736, 0.224121, 0.852417, -0.401245, -17.333984, -35.034180, -34.545898
145756, 0.194580, 0.870972, -0.297729, 2.075195, -45.410172, -19.042969
145776, 0.047241, 0.859619, -0.411255, 15.625004, -37.292480, 6.896975
145796, 0.186890, 0.874268, -0.437134, 16.906738, -25.268562, 20.263672
145816, 0.177734, 0.765869, -0.479126, 13.427738, -25.817879, 22.766121
145836, 0.260254, 1.081177, -0.468018, 7.873537, -26.367195, 23.193367
145856, 0.102051, 0.930054, -0.372070, 3.540040, -27.526863, 22.216805
145876, 0.073486, 0.946899, -0.352051, 3.295899, -15.197758, 28.991707
145896, 0.127197, 0.941528, -0.396484, -0.854492, -0.305176, 29.663094
145916, 0.193970, 0.954224, -0.343506, -3.295899, -3.723145, 23.437508
145936, 0.150757, 0.947388, -0.370483, -0.427246, -11.169437, 15.136723
145956, 0.109131, 0.940552, -0.400513, -1.342773, -13.732914, 10.803223
145976, 0.011841, 0.911499, -0.488892, -3.051759, -13.488773, 6.958010
145996, 0.008911, 0.907593, -0.506470, -11.657719, -2.258301, 6.713869
146016, -0.015381, 0.919434, -0.444702, -4.455566, -0.061035, 1.647950
146036, 0.024414, 0.890747, -0.519287, -8.239746, 15.808109, 1.770020
146056, 0.032959, 0.874023, -0.541382, -9.460449, 17.761230, 2.502441
146076, 0.080688, 0.866821, -0.558716, -11.901859, 19.592285, -3.051759
146096, 0.075317, 0.880127, -0.555908, -9.338379, 24.230965, -9.704590
146116, 0.110596, 0.879883, -0.545654, -6.713869, 20.690918, -20.629883
146136, 0.047607, 0.852051, -0.543701, -0.244141, 24.169930, -30.395515
146156, 0.024292, 0.862183, -0.513062, 3.417970, 33.447266, -25.268562
146176, 0.102295, 0.856079, -0.514282, 4.638672, 46.020523, -13.732914
146196, 0.251099, 0.847900, -0.523804, 2.807618, 41.809082, -12.878422
146216, 0.270142, 0.852417, -0.471436, -4.089355, 38.879395, -6.225588
146236, 0.434204, 0.867310, -0.372803, -6.530764, 30.883797, 4.821777
146256, 0.522583, 0.848999, -0.347168, -11.657719, 18.676758, 7.568361
146276, 0.729736, 0.878662, -0.288330, -18.798828, -8.178711, 9.155273
146296, 0.899780, 0.923096, -0.248047, -6.591799, -62.011734, -34.362793
146316, 0.709473, 0.883179, -0.282715, 2.197266, -127.990753, -71.350098
146336, 0.176025, 0.829956, -0.422607, 0.366211, -163.696289, -87.463379
146356, -0.445435, 0.927612, -0.298218, -4.089355, -93.139679, -28.503426
146376, -0.456421, 1.001343, -0.191772, 11.901859, 14.587406, 27.648933
146396, 0.005493, 0.920044, -0.445313, 10.864258, 18.920898, 69.213867
146416, 0.322144, 0.925049, -0.386475, -4.333496, 11.596684, 52.490250
146436, 0.284180, 0.952271, -0.321899, -1.953125, -2.502441, 31.127937
146456, 0.178589, 0.940308, -0.379517, -5.676271, -18.981934, 20.629883
146476, 0.017578, 0.961914, -0.384399, -5.493164, -26.550301, 6.652834
146496, -0.097290, 0.959839, -0.393066, -3.845216, -14.831547, 0.671387
146516, -0.141968, 0.926270, -0.487671, -8.911133, -0.122070, 2.075195
146536, -0.096680, 0.954102, -0.396362, -12.817387, 4.394531, 6.408693
146556, -0.067871, 0.942017, -0.417114, -13.366703, 10.253906, 8.728027
146576, 0.005981, 0.945068, -0.369873, -10.681152, 14.343266, 7.080080
146596, 0.063965, 0.938477, -0.388916, -8.361816, 14.343266, 2.563477
146616, 0.098389, 0.912964, -0.427490, -3.784181, 5.065918, -7.141115
146636, 0.071899, 0.925659, -0.443481, -1.464844, -0.610352, -10.009766
146656, 0.019409, 0.891846, -0.492188, -0.427246, 4.211426, -12.390141
146676, 0.020874, 0.883179, -0.512451, -0.305176, 14.038090, -10.375977
146696, 0.042603, 0.881104, -0.488892, 5.554201, 21.179199, -8.483887
146716, 0.105103, 0.848877, -0.541748, 10.070801, 25.573738, -3.723145
146736, 0.149048, 0.841797, -0.574707, 10.925293, 29.846199, -1.708985
146756, 0.234375, 0.818970, -0.626221, 7.446291, 30.761726, -3.784181
146776, 0.270020, 0.827393, -0.620972, 1.281738, 27.465828, -11.840824
146796, 0.339233, 0.851929, -0.545776, -0.732422, 17.272949, -29.052742
146816, 0.246704, 0.831543, -0.538574, 0.610352, 17.089844, -33.203125
146836, 0.215820, 0.838623, -0.480713, -0.854492, 21.240234, -24.230965
146856, 0.279419, 0.872192, -0.396118, 4.699707, 9.765625, -15.502934
146876, 0.291260, 0.895020, -0.354858, 9.765625, 2.807618, -11.657719
146896, 0.251831, 0.913574, -0.304199, 14.465336, 1.647950, -6.835939
146916, 0.221313, 0.924561, -0.341919, 18.005371, 1.464844, 0.366211
146936, 0.332031, 0.933350, -0.313477, 8.056641, -12.329105, 6.408693
146956, 0.250977, 0.993530, -0.203979, 12.634281, -25.878914, 4.028320
146976, 0.174927, 0.990601, -0.293213, 11.718754, -29.541023, 1.892090
146996, 0.050049, 0.983032, -0.235352, 10.864258, -21.667480, -5.126953
147016, 0.040405, 0.977661, -0.373535, 7.324221, -18.676758, -13.061527
147036, -0.060547, 0.971802, -0.270752, 10.375977, -10.131836, -13.183598
147056, -0.117310, 0.934448, -0.327271, 26.367195, 5.737307, 1.831055
147076, -0.022705, 0.886719, -0.484863, 28.076180, 23.681648, 11.901859
147096, 0.063110, 0.871826, -0.525024, 24.353035, 31.799324, 17.761230
147116, 0.171265, 0.859253, -0.558472, 17.639160, 30.883797, 18.249512
147136, 0.236206, 0.857178, -0.559814, 9.948730, 26.184090, 13.122562
147156, 0.248779, 0.861572, -0.541138, 3.234864, 18.310547, 6.591799
147176, 0.234863, 0.865479, -0.521606, -3.723145, -3.906251, -0.976563
147196, 0.129883, 0.882568, -0.476563, -5.981447, -8.300781, -2.075195
147216, 0.077026, 0.892090, -0.457275, -4.760742, -2.868653, 1.586915
147236, 0.118530, 0.891968, -0.444946, -2.990724, 3.234864, 5.065918
147256, 0.191040, 0.888794, -0.451050, -1.220703, 1.831055, 4.638672
147276, 0.207764, 0.886963, -0.452515, 0.122070, -2.807618, 1.220703
147296, 0.174561, 0.889771, -0.449219, 1.342773, -4.821777, -1.464844
147316, 0.134766, 0.887573, -0.460938, 2.807618, -4.089355, -1.586915
147336, 0.121826, 0.880493, -0.482178, 2.563477, -2.014160, 0.305176
147356, 0.117432, 0.876343, -0.499268, 0.732422, 0.183106, 2.502441
147376, 0.113647, 0.880981, -0.481567, -1.953125, 4.089355, 6.774904
147396, 0.139526, 0.887451, -0.455933, -1.647950, 6.164553, 8.728027
147416, 0.179321, 0.890625, -0.439575, 0.244141, 6.958010, 8.605957
147436, 0.209961, 0.887085, -0.442139, 2.685547, 5.676271, 5.737307
147456, 0.216553, 0.883545, -0.455688, 4.272461, 2.502441, 2.319336
147476, 0.186279, 0.878418, -0.477417, 4.150391, 0.183106, 0.061035
