timestamp,ax,ay,az,gx,gy,gz
1382645, 0.610596, 0.378296, -0.708130, 0.366211, -0.732422, -0.427246
1382665, 0.611328, 0.391235, -0.724854, 0.488281, -0.610352, -1.159668
1382685, 0.598755, 0.380493, -0.702637, 1.403809, -0.915528, 1.220703
1382705, 0.598755, 0.379639, -0.714844, -0.122070, -0.671387, 0.488281
1382725, 0.612549, 0.358154, -0.703003, -0.427246, -0.122070, 0.305176
1382745, 0.608276, 0.373901, -0.713013, -0.915528, -0.183106, -1.770020
1382765, 0.615479, 0.383911, -0.707275, -0.183106, -0.427246, -1.586915
1382785, 0.605103, 0.394897, -0.714478, 0.366211, -0.915528, -0.976563
1382805, 0.608643, 0.389038, -0.713745, 0.488281, -0.732422, 0.732422
1382825, 0.607178, 0.375366, -0.706177, 0.976563, -1.342773, -0.183106
1382845, 0.604004, 0.364502, -0.710449, 1.220703, -1.586915, -1.586915
1382865, 0.598633, 0.369751, -0.716187, -0.061035, -0.488281, -2.197266
1382885, 0.609375, 0.384521, -0.709229, -0.366211, -0.183106, -1.953125
1382905, 0.607910, 0.383423, -0.709595, 0.427246, -0.854492, -2.075195
1382925, 0.603882, 0.380371, -0.712036, 0.610352, -0.488281, -1.892090
1382946, 0.603882, 0.385254, -0.715698, 0.488281, -0.366211, -1.342773
1382966, 0.604858, 0.381348, -0.715210, 0.488281, -0.854492, -0.427246
1382986, 0.601929, 0.384399, -0.709106, -0.549316, -0.305176, -0.244141
1383006, 0.608032, 0.387939, -0.705444, 0.122070, -0.915528, -0.732422
1383026, 0.608276, 0.380371, -0.710449, 0.305176, -0.671387, -0.976563
1383046, 0.607544, 0.383911, -0.708130, 0.305176, -0.976563, -0.732422
1383066, 0.602173, 0.370972, -0.710938, 0.000000, -1.159668, -1.037598
1383086, 0.596069, 0.372437, -0.709595, -1.037598, 0.183106, -1.892090
1383106, 0.606445, 0.380615, -0.706177, -1.342773, 0.122070, -2.746582
1383126, 0.608643, 0.384033, -0.705566, -0.793457, -0.549316, -3.784181
1383146, 0.602783, 0.383545, -0.708130, -0.183106, -0.854492, -4.394531
1383166, 0.601685, 0.391846, -0.714111, -0.549316, -0.915528, -4.455566
1383186, 0.602173, 0.417480, -0.719604, -0.244141, -0.122070, -1.708985
1383206, 0.604980, 0.406616, -0.716675, 0.549316, 0.610352, 0.610352
1383226, 0.601440, 0.382446, -0.703125, 0.976563, -0.488281, 0.305176
1383246, 0.599976, 0.372559, -0.705688, 0.427246, -1.281738, -2.258301
1383266, 0.608032, 0.407349, -0.716309, 1.403809, -1.220703, -1.220703
1383286, 0.602661, 0.398193, -0.713379, 1.586915, -1.220703, 0.427246
1383306, 0.599121, 0.381958, -0.705688, 0.915528, -1.037598, 0.854492
1383326, 0.599854, 0.373291, -0.705933, 0.427246, -1.098633, -0.305176
1383346, 0.600952, 0.388428, -0.718750, -0.244141, 0.000000, -2.197266
1383366, 0.598633, 0.394653, -0.699829, 0.305176, -0.244141, 0.000000
1383386, 0.609497, 0.401367, -0.720215, 0.061035, -0.610352, 0.061035
1383406, 0.600098, 0.385864, -0.704956, 0.549316, -0.305176, 0.549316
1383426, 0.594482, 0.368530, -0.709473, 0.183106, -0.549316, -1.831055
1383446, 0.608765, 0.398438, -0.708618, -0.671387, -0.183106, -2.502441
1383466, 0.612183, 0.411621, -0.711792, 0.793457, -0.915528, -1.159668
1383486, 0.605225, 0.393188, -0.710083, 1.098633, -0.915528, 0.183106
1383506, 0.590698, 0.375854, -0.706055, 0.244141, -0.366211, -0.488281
1383526, 0.595947, 0.382324, -0.710693, -0.915528, 0.000000, -1.892090
1383546, 0.606567, 0.397095, -0.712036, -0.427246, -0.488281, -2.075195
1383566, 0.600220, 0.390381, -0.709106, -0.061035, -0.854492, -2.258301
1383586, 0.597046, 0.387329, -0.708008, -0.915528, -0.549316, -2.441406
1383606, 0.605591, 0.415405, -0.709473, -0.427246, -0.793457, -1.525879
1383626, 0.606812, 0.411011, -0.713135, 0.976563, -0.854492, 0.610352
1383646, 0.593018, 0.375488, -0.703979, 0.244141, -0.244141, 0.000000
1383666, 0.595459, 0.374390, -0.707642, -0.793457, -0.732422, -2.380371
1383686, 0.600342, 0.392944, -0.712769, -0.915528, -0.366211, -3.540040
1383706, 0.599854, 0.396729, -0.707520, -1.586915, -0.244141, -3.479005
1383726, 0.605957, 0.411621, -0.705811, -0.915528, -0.671387, -2.075195
1383746, 0.601196, 0.404785, -0.709351, -0.305176, -0.854492, -1.647950
1383766, 0.594849, 0.389404, -0.707764, -0.671387, -0.488281, -1.770020
1383786, 0.595215, 0.395752, -0.706543, -1.464844, -0.732422, -2.563477
1383806, 0.603760, 0.412354, -0.710815, -0.793457, -0.854492, -1.708985
1383826, 0.594238, 0.389771, -0.706177, -0.244141, -0.976563, -1.831055
1383846, 0.592773, 0.383545, -0.705933, -1.708985, -0.793457, -3.723145
1383866, 0.597900, 0.399902, -0.704590, -2.075195, -0.793457, -4.577637
1383886, 0.603394, 0.418091, -0.706909, -1.525879, -1.220703, -4.150391
1383906, 0.595825, 0.423096, -0.708618, -0.610352, -0.854492, -2.380371
1383926, 0.595825, 0.415894, -0.708374, -0.244141, -0.976563, -1.159668
1383946, 0.592285, 0.401001, -0.705688, -0.183106, -0.610352, -0.976563
1383966, 0.595825, 0.408081, -0.702515, 0.122070, -1.037598, -1.892090
1383986, 0.594116, 0.418579, -0.714355, 0.732422, -0.671387, -0.732422
1384006, 0.594727, 0.416992, -0.709717, 0.732422, -0.366211, 0.366211
1384026, 0.594604, 0.394287, -0.707153, 0.793457, -0.793457, -0.793457
1384046, 0.587158, 0.396118, -0.707520, -0.732422, -0.732422, -1.647950
1384066, 0.593628, 0.407104, -0.703857, -0.305176, -0.366211, -2.319336
1384086, 0.593262, 0.405396, -0.706543, -0.061035, -0.671387, -3.417970
1384106, 0.589966, 0.410156, -0.706909, -0.488281, -1.037598, -3.723145
1384126, 0.592407, 0.402222, -0.707886, -0.732422, -0.610352, -3.723145
1384146, 0.590454, 0.396851, -0.704468, -1.647950, -0.244141, -5.493164
1384166, 0.585693, 0.394287, -0.700195, -1.892090, -1.098633, -8.239746
1384186, 0.580444, 0.388672, -0.707397, -2.868653, -0.671387, -10.498047
1384206, 0.575684, 0.352173, -0.691895, -5.187988, 0.915528, -17.883301
1384226, 0.562012, 0.356567, -0.692871, -8.056641, 2.014160, -25.512703
1384246, 0.560791, 0.384399, -0.711792, -10.986328, 2.502441, -31.250008
1384266, 0.568481, 0.419189, -0.706543, -13.183598, 3.967286, -33.020020
1384286, 0.572266, 0.443115, -0.682861, -12.573246, 4.333496, -31.555183
1384306, 0.558228, 0.469849, -0.689819, -12.329105, 5.126953, -29.296883
1384326, 0.492798, 0.482300, -0.696411, -12.207035, 15.380863, -25.695808
1384346, 0.539429, 0.516479, -0.680908, -11.779789, 26.855476, -23.925789
1384366, 0.579468, 0.530762, -0.675781, -10.803223, 21.911621, -22.766121
1384386, 0.594604, 0.600708, -0.692383, -8.666992, 14.892582, -17.761230
1384406, 0.609131, 0.568848, -0.647827, -1.037598, 8.911133, -8.972168
1384426, 0.578613, 0.495361, -0.628174, -3.112794, 8.605957, -5.859377
1384446, 0.599487, 0.480347, -0.633667, -5.920412, 4.272461, -8.117676
1384466, 0.585083, 0.492065, -0.631592, -5.432129, 0.305176, -16.662598
1384486, 0.548828, 0.456055, -0.656616, -8.300781, 0.122070, -24.475105
1384506, 0.512817, 0.514160, -0.655029, -15.441898, -0.488281, -28.198250
1384526, 0.550659, 0.740601, -0.621704, -0.610352, 15.747074, -1.220703
1384546, 0.662964, 0.567993, -0.676025, -0.244141, 8.483887, -2.929688
1384566, 0.543945, 0.543823, -0.611084, -1.464844, -4.028320, -1.281738
1384586, 0.568726, 0.533203, -0.641724, -0.793457, -4.882813, -2.136230
1384606, 0.571899, 0.534790, -0.639526, 0.915528, -2.014160, -2.258301
1384626, 0.554932, 0.533936, -0.631226, 2.136230, -4.211426, -1.098633
1384646, 0.559814, 0.541504, -0.651001, 2.685547, -5.065918, 0.915528
1384666, 0.560669, 0.549316, -0.652588, 1.831055, -6.408693, 1.403809
1384686, 0.549805, 0.539185, -0.650146, 2.014160, -6.225588, 4.272461
1384706, 0.557739, 0.515503, -0.639893, 0.183106, -9.155273, 6.591799
1384726, 0.553833, 0.518677, -0.621948, -2.197266, -1.281738, 14.831547
1384746, 0.560913, 0.537476, -0.638306, -4.699707, 1.403809, 16.418457
1384766, 0.600952, 0.550293, -0.625732, -8.666992, 3.967286, 19.470215
1384786, 0.582764, 0.546021, -0.623169, -15.441898, 4.638672, 22.277840
1384806, 0.587036, 0.546753, -0.618164, -13.977055, 2.868653, 18.737793
1384826, 0.575562, 0.562378, -0.645508, -11.291508, 2.014160, 12.817387
1384846, 0.550659, 0.556763, -0.668091, -10.070801, 0.122070, 8.483887
1384866, 0.563354, 0.548462, -0.666992, -11.291508, 1.586915, 6.103518
1384886, 0.602173, 0.534912, -0.623291, -15.197758, -1.708985, 7.629396
1384906, 0.573975, 0.543701, -0.612549, -12.207035, -1.037598, 5.249023
1384926, 0.584229, 0.536987, -0.627441, -9.277344, 0.183106, 1.647950
1384946, 0.551392, 0.550781, -0.641113, -5.676271, 3.295899, -1.770020
1384966, 0.598755, 0.574951, -0.632568, -9.887695, -3.601075, -3.356935
1384986, 0.554565, 0.558350, -0.634644, -10.192871, -3.417970, -4.455566
1385006, 0.603516, 0.596802, -0.647095, -9.033203, -1.464844, -10.864258
1385026, 0.578125, 0.575562, -0.653687, -6.530764, -10.375977, -18.798828
1385046, 0.557251, 0.532959, -0.613281, -3.845216, -14.282230, -20.751953
1385066, 0.530396, 0.492432, -0.592407, -1.159668, -8.789063, -17.456055
1385086, 0.560791, 0.510620, -0.594116, 1.098633, -2.441406, -9.277344
1385106, 0.585815, 0.544800, -0.619873, 0.305176, 0.427246, -6.347658
1385126, 0.583252, 0.556030, -0.578003, 0.854492, -1.892090, -5.554201
1385146, 0.584351, 0.562256, -0.592407, 1.708985, -3.479005, -3.112794
1385166, 0.555542, 0.566284, -0.609619, 2.258301, -5.615236, -2.380371
1385186, 0.548950, 0.565186, -0.626953, 1.586915, -3.906251, -0.305176
1385206, 0.573853, 0.567261, -0.615356, 0.061035, -5.554201, 0.732422
1385226, 0.575439, 0.571411, -0.618164, 0.610352, -9.521484, 0.122070
1385246, 0.575806, 0.576416, -0.603394, 1.281738, -14.404301, -0.122070
1385266, 0.580200, 0.578735, -0.608521, 3.234864, -23.864754, -0.732422
1385286, 0.604248, 0.566284, -0.646240, 3.356935, -34.057617, -1.464844
1385306, 0.453369, 0.564941, -0.646362, 1.464844, -36.682129, -1.220703
1385326, 0.427734, 0.581787, -0.716187, -17.639160, -6.225588, 14.404301
1385346, 0.578125, 0.590820, -0.577148, -20.996094, 0.732422, 15.075687
1385366, 0.541626, 0.579834, -0.640991, -17.028809, -2.014160, 10.498047
1385386, 0.509277, 0.573975, -0.655029, -14.953617, -2.990724, 7.080080
1385406, 0.486694, 0.580078, -0.661377, -16.113281, 3.479005, 6.774904
1385426, 0.521118, 0.594971, -0.645874, -13.610844, 5.676271, 5.187988
1385446, 0.557739, 0.605103, -0.633545, -15.380863, 1.831055, 3.662110
1385466, 0.552612, 0.609741, -0.670410, -22.155769, -0.366211, 1.342773
1385486, 0.545654, 0.606689, -0.551270, -18.676758, 4.760742, -3.295899
1385506, 0.555054, 0.612305, -0.597412, -13.977055, 6.408693, -6.652834
1385526, 0.624756, 0.697998, -0.451538, -10.192871, 31.677254, -21.423340
1385546, 0.453247, 0.572021, -0.692749, -10.498047, 6.286623, -11.535648
1385566, 0.562500, 0.607056, -0.559570, -3.051759, 10.803223, -9.033203
1385586, 0.554565, 0.613281, -0.609375, -3.662110, 2.075195, -12.084965
1385606, 0.569946, 0.589233, -0.545532, 3.356935, 13.488773, -20.996094
1385626, 0.481567, 0.541382, -0.644897, -2.136230, 9.765625, -8.789063
1385646, 0.580078, 0.619995, -0.540527, 0.000000, 19.165039, -4.516602
1385666, 0.618042, 0.636719, -0.521973, 8.850098, 2.197266, -12.084965
1385686, 0.529785, 0.614990, -0.574463, 11.962894, -5.737307, -11.535648
1385706, 0.520874, 0.621826, -0.587646, 9.277344, -9.033203, -7.629396
1385726, 0.535156, 0.628540, -0.575073, 6.652834, -2.746582, -4.882813
1385746, 0.544312, 0.627441, -0.584839, 6.103518, -1.831055, -5.493164
1385766, 0.532227, 0.624268, -0.588257, 5.737307, -0.915528, -4.943848
1385786, 0.526733, 0.622925, -0.594849, 4.272461, 0.427246, -4.272461
1385806, 0.531982, 0.629272, -0.579346, 6.164553, -0.305176, -5.249023
1385826, 0.519531, 0.612427, -0.604858, 7.324221, -1.220703, -6.103518
1385846, 0.557739, 0.618652, -0.602417, 1.525879, -1.525879, -2.319336
1385866, 0.551270, 0.632690, -0.566162, -0.183106, -6.042482, -1.953125
1385886, 0.515015, 0.630249, -0.579834, 2.014160, -7.263186, -1.708985
1385906, 0.493286, 0.623047, -0.607666, 1.892090, -5.676271, -0.671387
1385926, 0.510254, 0.620728, -0.611206, 0.305176, -1.647950, 2.014160
1385946, 0.533813, 0.621216, -0.604370, -0.732422, -2.929688, 2.014160
1385966, 0.535156, 0.624756, -0.588501, -0.061035, -5.554201, 1.586915
1385986, 0.534424, 0.626221, -0.596436, 0.305176, -7.019045, 0.732422
1386006, 0.517212, 0.625610, -0.601074, 0.793457, -7.507326, 0.671387
1386026, 0.513672, 0.625244, -0.600342, 0.854492, -6.591799, 0.793457
1386046, 0.514160, 0.624634, -0.599854, 1.342773, -5.371094, 1.037598
1386066, 0.519165, 0.627319, -0.596802, 2.075195, -6.347658, 1.159668
