timestamp,ax,ay,az,gx,gy,gz
305567, 0.665039, 0.668213, -0.393921, -3.540040, 21.301270, 12.023930
305587, 0.646362, 0.638916, -0.425903, -3.540040, 16.418457, 10.925293
305607, 0.592773, 0.642456, -0.431519, -4.821777, 20.751953, 16.479492
305627, 0.588135, 0.640137, -0.428955, -8.605957, 26.367195, 20.568848
305647, 0.591797, 0.638062, -0.401245, -10.192871, 37.109375, 25.573738
305667, 0.727295, 0.628174, -0.360107, -10.559082, 42.968750, 26.611336
305687, 0.774170, 0.625854, -0.348511, -11.718754, 30.517586, 22.033691
305707, 0.756226, 0.627563, -0.316650, -10.559082, 25.878914, 18.432617
305727, 0.814941, 0.628052, -0.298096, -8.239746, 16.113281, 13.610844
305747, 0.807617, 0.630371, -0.284424, -5.432129, 6.347658, 7.019045
305767, 0.792114, 0.631104, -0.269653, -1.098633, 0.244141, 1.281738
305787, 0.762085, 0.633667, -0.269653, 4.089355, -4.089355, -2.319336
305807, 0.799927, 0.633057, -0.270874, 11.230473, -2.807618, -8.789063
305827, 0.792969, 0.631226, -0.287598, 14.831547, -15.502934, -15.563969
305847, 0.734253, 0.627075, -0.332642, 17.883301, -18.249512, -18.249512
305867, 0.660522, 0.621460, -0.384644, 16.662598, -19.836426, -17.639160
305887, 0.613770, 0.617065, -0.431396, 12.390141, -16.845703, -12.817387
305907, 0.591553, 0.616089, -0.455933, 5.859377, -7.812502, -6.530764
305927, 0.616089, 0.622070, -0.432495, -0.305176, 0.122070, -0.854492
305947, 0.685181, 0.632690, -0.380005, -2.929688, 2.258301, 1.220703
305967, 0.694824, 0.641113, -0.343750, -2.136230, 1.342773, 1.220703
305987, 0.713867, 0.636597, -0.349487, 1.647950, -2.563477, -0.366211
306007, 0.690186, 0.632324, -0.375854, 1.464844, -3.540040, -1.098633
306027, 0.684570, 0.632080, -0.374878, 0.976563, -2.990724, -0.793457
306047, 0.683838, 0.636230, -0.369507, 0.793457, -2.929688, -0.732422
306067, 0.685913, 0.637329, -0.360107, 1.464844, -1.953125, -0.366211
306087, 0.696045, 0.637207, -0.355347, 2.624512, -2.197266, -0.427246
306107, 0.733521, 0.634644, -0.365112, 3.784181, -5.981447, -1.892090
306127, 0.669312, 0.635864, -0.376343, 3.723145, -9.277344, -2.868653
306147, 0.665771, 0.628540, -0.403198, 2.685547, -6.286623, -1.770020
306167, 0.658813, 0.628662, -0.403564, 0.671387, -4.089355, -0.732422
306187, 0.677490, 0.635132, -0.380737, -0.732422, -1.525879, 1.037598
306207, 0.679321, 0.638550, -0.361206, 0.122070, -0.915528, 1.281738
306227, 0.703735, 0.633911, -0.367432, 1.647950, -2.258301, 0.793457
306247, 0.683350, 0.631226, -0.384033, 1.770020, -2.990724, -0.610352
306267, 0.687744, 0.632446, -0.391479, 1.342773, -2.990724, -0.549316
306287, 0.666992, 0.632324, -0.387695, 0.732422, -1.342773, -0.488281
306307, 0.684082, 0.634155, -0.379883, 0.610352, -0.671387, 0.061035
306327, 0.683105, 0.633545, -0.381104, 1.098633, -1.220703, -0.244141
306347, 0.676758, 0.633911, -0.386841, 1.037598, -0.976563, 0.000000
306367, 0.684204, 0.632446, -0.383789, 0.793457, -0.671387, 0.183106
306387, 0.683716, 0.631714, -0.387573, 0.671387, -1.464844, -0.061035
306407, 0.675903, 0.630981, -0.396240, 0.000000, -0.793457, 0.061035
306427, 0.679077, 0.634399, -0.383667, -0.305176, -0.854492, 0.488281
306447, 0.678467, 0.635376, -0.380127, -0.183106, -0.793457, 0.671387
306467, 0.684204, 0.635132, -0.375610, 0.549316, -0.366211, 0.732422
306487, 0.687500, 0.633789, -0.379517, 1.159668, -0.366211, 0.366211
306507, 0.684082, 0.630127, -0.394165, 0.671387, -0.122070, 0.000000
306527, 0.680298, 0.630371, -0.392334, -0.061035, -0.183106, -0.061035
306547, 0.684692, 0.632202, -0.382324, -0.305176, 0.122070, 0.000000
306567, 0.685669, 0.633545, -0.376709, 0.244141, -0.061035, -0.366211
306587, 0.683838, 0.632935, -0.384277, 0.488281, -0.305176, -0.427246
306607, 0.679565, 0.633301, -0.385620, 0.305176, -0.610352, -0.366211
306627, 0.678833, 0.634033, -0.380127, 0.305176, -1.403809, 0.122070
306647, 0.682251, 0.633301, -0.379395, 0.549316, -0.671387, 0.244141
306667, 0.690796, 0.633057, -0.380249, 0.915528, -0.610352, -0.305176
306687, 0.685425, 0.631714, -0.384277, 0.976563, -0.671387, -0.732422
306707, 0.677490, 0.633301, -0.383911, 0.854492, -0.671387, -0.671387
306727, 0.685303, 0.632690, -0.381104, 1.037598, -0.854492, -0.427246
306747, 0.673462, 0.632568, -0.389282, 0.671387, -1.098633, -0.366211
306767, 0.679932, 0.632080, -0.382935, 0.549316, -0.244141, 0.000000
306787, 0.689575, 0.634277, -0.377197, 0.976563, -0.488281, -0.305176
306807, 0.685547, 0.632568, -0.380737, 1.342773, -0.976563, -0.732422
306827, 0.677856, 0.631958, -0.392334, 1.220703, -1.159668, -0.732422
306847, 0.677490, 0.631226, -0.392578, 0.305176, -0.549316, -0.366211
306867, 0.687622, 0.632202, -0.385010, -0.061035, -0.305176, -0.549316
306887, 0.678345, 0.634521, -0.381348, 0.244141, -0.793457, -0.732422
306907, 0.686646, 0.633423, -0.384033, 0.427246, -1.159668, -0.549316
306927, 0.669189, 0.633423, -0.384033, 0.366211, -0.976563, -0.488281
306947, 0.682739, 0.633423, -0.382202, 0.183106, -0.671387, -0.366211
306967, 0.675781, 0.630859, -0.382690, 0.366211, -0.366211, -0.305176
306987, 0.671387, 0.635376, -0.380737, 0.610352, -0.183106, 0.000000
307007, 0.689331, 0.646851, -0.389893, 1.037598, 0.244141, 1.159668
307027, 0.683472, 0.622559, -0.401245, -0.427246, -0.122070, 0.061035
307047, 0.681030, 0.636353, -0.371826, -0.366211, -0.610352, 0.549316
307067, 0.686523, 0.635010, -0.380859, 0.305176, -0.854492, -0.061035
307087, 0.670532, 0.631836, -0.380859, 0.366211, -0.671387, 0.549316
307107, 0.678467, 0.632568, -0.392334, 0.366211, -1.220703, 0.915528
307127, 0.683228, 0.632813, -0.386719, -0.793457, 0.549316, 1.586915
307147, 0.695801, 0.633789, -0.378174, -0.976563, -0.732422, 0.549316
307167, 0.686646, 0.633423, -0.378662, -0.305176, -0.854492, 0.427246
307187, 0.684814, 0.634399, -0.379150, -0.061035, -0.915528, 0.061035
307207, 0.674561, 0.632813, -0.388550, -0.122070, 0.183106, 0.244141
307227, 0.678467, 0.634521, -0.380249, -0.244141, 1.525879, 0.915528
307247, 0.694824, 0.633789, -0.371338, 0.305176, -0.488281, 0.549316
307267, 0.685913, 0.633179, -0.379150, 0.793457, -1.586915, 0.244141
307287, 0.671387, 0.631348, -0.388062, 0.244141, -0.244141, 0.549316
307307, 0.682861, 0.633423, -0.378418, 0.488281, 1.098633, 0.915528
307327, 0.697144, 0.631592, -0.374878, 1.159668, 0.366211, 0.366211
307347, 0.687134, 0.631226, -0.385010, 1.098633, -1.403809, -0.366211
307367, 0.682251, 0.628784, -0.386230, 0.610352, -0.793457, -0.122070
307387, 0.686157, 0.628418, -0.385498, 0.244141, -0.183106, -0.488281
307407, 0.670776, 0.628418, -0.378662, -0.061035, 0.366211, -0.488281
307427, 0.694092, 0.645386, -0.376343, 0.793457, 0.549316, 0.976563
307447, 0.683105, 0.620728, -0.393921, -0.366211, -0.061035, -0.427246
307467, 0.694458, 0.636475, -0.364258, 0.366211, -0.244141, 0.305176
307487, 0.692627, 0.631104, -0.382813, 0.549316, -1.586915, -1.037598
307507, 0.682251, 0.634766, -0.378540, 0.671387, -0.427246, 0.061035
307527, 0.681030, 0.631348, -0.380859, 0.610352, -0.793457, 0.183106
307547, 0.684204, 0.634033, -0.376587, 0.915528, -0.305176, 0.732422
307567, 0.693115, 0.628052, -0.387939, 0.610352, -0.732422, 0.061035
307587, 0.689453, 0.629761, -0.383179, 0.244141, 0.000000, -0.183106
307607, 0.691650, 0.633423, -0.379028, 0.061035, -0.793457, -0.671387
307627, 0.679688, 0.632813, -0.374634, 0.427246, -0.793457, -0.671387
307647, 0.681519, 0.634277, -0.374634, 1.037598, -0.427246, -0.366211
307667, 0.679077, 0.631958, -0.386841, 0.915528, -0.366211, -0.122070
307687, 0.688721, 0.631958, -0.384521, 0.427246, -0.671387, 0.122070
307707, 0.686523, 0.630005, -0.382935, 0.305176, -1.342773, 0.000000
307727, 0.687622, 0.630005, -0.380005, 0.122070, -1.342773, -0.122070
307747, 0.687012, 0.630005, -0.382324, 0.122070, -1.586915, -0.549316
307767, 0.672607, 0.633423, -0.381104, 0.000000, -0.976563, -0.061035
307787, 0.681763, 0.630249, -0.389038, -0.244141, 0.183106, 0.244141
307807, 0.686646, 0.633057, -0.378418, -0.427246, 0.244141, 0.549316
307827, 0.696411, 0.631104, -0.374634, -0.183106, -0.915528, -0.122070
307847, 0.683105, 0.633423, -0.373535, 0.366211, -1.953125, -0.244141
307867, 0.679199, 0.633667, -0.382568, 0.549316, -1.831055, 0.183106
307887, 0.680420, 0.631592, -0.378540, 0.488281, -0.732422, 0.793457
307907, 0.694824, 0.627930, -0.380005, 0.915528, -0.427246, 0.549316
307927, 0.687500, 0.631958, -0.382690, 0.488281, -1.159668, -0.122070
307947, 0.677490, 0.632324, -0.389771, 0.183106, -0.366211, 0.000000
307967, 0.682495, 0.630249, -0.378174, 0.061035, 0.427246, 0.549316
307987, 0.687012, 0.630615, -0.372925, 0.427246, -0.610352, 0.427246
308007, 0.685303, 0.630249, -0.378052, 0.671387, -0.366211, 0.061035
308027, 0.688110, 0.632080, -0.380493, 0.732422, 0.244141, 0.244141
308047, 0.691162, 0.631592, -0.381470, 0.793457, -0.427246, 0.061035
308067, 0.671509, 0.628906, -0.385254, 0.244141, 0.488281, 0.732422
308087, 0.699219, 0.630859, -0.377563, 0.488281, 0.122070, 0.427246
308107, 0.691528, 0.631104, -0.380371, 0.488281, -0.488281, 0.183106
308127, 0.688965, 0.626221, -0.386963, 0.122070, -0.976563, -0.244141
308147, 0.684448, 0.631470, -0.380493, -0.305176, -1.037598, -0.122070
308167, 0.690552, 0.632202, -0.375610, 0.000000, -0.488281, -0.244141
308187, 0.692749, 0.631104, -0.377808, 0.305176, -0.610352, -0.305176
308207, 0.685059, 0.627563, -0.385620, -0.122070, -1.220703, -1.037598
308227, 0.683105, 0.634521, -0.379883, -0.305176, -0.427246, -0.549316
308247, 0.682251, 0.632568, -0.375732, -0.122070, -0.183106, -0.671387
308267, 0.695068, 0.634888, -0.372681, 0.976563, -1.037598, -0.488281
308287, 0.681152, 0.630493, -0.388306, 0.610352, -1.708985, -0.244141
308307, 0.681030, 0.627808, -0.393066, -0.305176, -1.403809, 0.122070
308327, 0.678711, 0.629883, -0.377930, -1.037598, -0.915528, 0.366211
308347, 0.690552, 0.633057, -0.370361, -0.549316, -0.610352, 0.549316
308367, 0.694336, 0.632080, -0.372925, 0.122070, -0.915528, -0.183106
308387, 0.693848, 0.632935, -0.373047, 0.488281, -1.403809, -0.793457
308407, 0.692139, 0.630493, -0.380981, 0.732422, -1.953125, -1.342773
308427, 0.672241, 0.631470, -0.386353, 0.244141, -1.892090, -1.159668
308447, 0.671875, 0.633911, -0.376831, -0.122070, -0.549316, 0.305176
308467, 0.685425, 0.633423, -0.374512, 0.183106, -0.671387, 0.366211
308487, 0.696899, 0.635376, -0.371826, 0.915528, -0.976563, 0.183106
308507, 0.688354, 0.628174, -0.383057, 0.976563, -1.342773, -0.671387
308527, 0.680420, 0.632080, -0.385864, 0.305176, -1.342773, -0.305176
308547, 0.679199, 0.632935, -0.381348, 0.305176, -0.610352, -0.122070
308567, 0.686890, 0.633789, -0.373291, 0.488281, -0.305176, -0.061035
308587, 0.695068, 0.634033, -0.375244, 0.976563, -0.854492, -0.366211
308607, 0.687622, 0.631836, -0.379883, 1.220703, -1.892090, -0.854492
308627, 0.671875, 0.632446, -0.385010, 0.976563, -1.647950, -0.427246
308647, 0.682739, 0.631348, -0.385864, 0.244141, -0.488281, 0.000000
308667, 0.686890, 0.632568, -0.376709, 0.183106, -0.366211, -0.122070
308687, 0.688232, 0.633667, -0.376099, 0.610352, -1.037598, -0.366211
308707, 0.683838, 0.633911, -0.378906, 1.037598, -1.342773, -0.488281
308727, 0.678711, 0.631348, -0.385132, 0.854492, -0.793457, -0.305176
308747, 0.680420, 0.630981, -0.387817, 0.427246, 0.061035, -0.244141
308767, 0.684326, 0.633301, -0.381714, 0.183106, 0.183106, -0.122070
308787, 0.681885, 0.632202, -0.378784, 0.244141, -0.183106, -0.122070
308807, 0.689087, 0.633301, -0.378052, 0.488281, -0.366211, 0.061035
308827, 0.678345, 0.630981, -0.385864, 0.427246, -0.244141, -0.122070
308847, 0.683228, 0.633179, -0.381470, 0.061035, 0.000000, 0.061035
308867, 0.681274, 0.633423, -0.376099, 0.366211, -0.061035, 0.122070
308887, 0.682739, 0.632446, -0.377441, 0.671387, -0.122070, 0.427246
308907, 0.689087, 0.631714, -0.379517, 0.854492, -0.732422, 0.183106
308927, 0.683594, 0.630737, -0.385498, 0.549316, -0.549316, 0.122070
308947, 0.685059, 0.631348, -0.383911, 0.183106, -0.427246, 0.000000
308967, 0.683716, 0.632690, -0.379517, 0.061035, -0.366211, 0.061035
308987, 0.682373, 0.633545, -0.379150, 0.183106, -0.366211, 0.122070
309007, 0.688110, 0.631714, -0.377930, 0.488281, 0.000000, 0.244141
309027, 0.682495, 0.631348, -0.382202, 0.122070, -0.183106, -0.183106
309047, 0.685791, 0.631470, -0.379028, 0.122070, -0.061035, 0.000000
309067, 0.683838, 0.633301, -0.377563, 0.244141, -0.244141, -0.061035
309087, 0.688354, 0.632813, -0.375854, 0.549316, -0.549316, -0.061035
309107, 0.681152, 0.631470, -0.384521, 0.427246, -0.732422, 0.000000
309127, 0.680420, 0.631470, -0.385376, 0.000000, -0.488281, 0.366211
309147, 0.682495, 0.632446, -0.377686, -0.244141, 0.000000, 0.671387
309167, 0.690186, 0.633423, -0.376587, 0.122070, -0.427246, 0.427246
309187, 0.687134, 0.632324, -0.379761, 0.122070, -0.488281, 0.366211
309207, 0.690918, 0.630127, -0.380493, -0.366211, -0.732422, -0.122070
309227, 0.679688, 0.631592, -0.379150, -0.549316, -0.427246, -0.061035
309247, 0.689697, 0.631836, -0.377808, -0.610352, -0.366211, 0.000000
309267, 0.687134, 0.633667, -0.376343, -0.244141, -0.427246, -0.366211
309287, 0.685425, 0.631226, -0.382568, -0.549316, -0.366211, -0.183106
309307, 0.678223, 0.628052, -0.387085, -1.159668, -1.220703, -0.366211
309327, 0.678833, 0.637085, -0.383179, -1.831055, 0.000000, 1.037598
309347, 0.685425, 0.628174, -0.368774, -1.892090, 0.671387, 0.122070
309367, 0.697266, 0.637207, -0.356689, -0.732422, 0.610352, 0.488281
309387, 0.701050, 0.637817, -0.369995, 0.244141, -1.647950, -0.732422
309407, 0.674561, 0.625977, -0.393799, -0.976563, -1.586915, -0.915528
309427, 0.673462, 0.636475, -0.381958, -1.892090, 0.061035, 0.305176
309447, 0.693848, 0.635620, -0.354614, -1.586915, -0.305176, 0.122070
309467, 0.703247, 0.640991, -0.345093, 0.732422, -2.136230, -0.671387
309487, 0.683472, 0.637329, -0.376343, 1.770020, -3.662110, -1.342773
309507, 0.666016, 0.631714, -0.391479, 0.915528, -1.892090, 0.061035
309527, 0.674072, 0.634399, -0.377075, 0.061035, -1.159668, 0.793457
309547, 0.693726, 0.633789, -0.376587, 0.244141, -1.342773, 0.976563
309567, 0.692139, 0.631470, -0.380981, -0.061035, -0.976563, 0.122070
309587, 0.683228, 0.636719, -0.372070, -0.366211, -0.183106, 0.000000
309607, 0.680908, 0.637939, -0.361694, 0.427246, -0.671387, 0.366211
309627, 0.688599, 0.636475, -0.366333, 1.403809, -1.220703, 0.549316
309647, 0.686157, 0.632568, -0.378540, 1.708985, -1.159668, 0.305176
309667, 0.691772, 0.629883, -0.386475, 0.793457, -0.610352, 0.061035
309687, 0.696655, 0.631836, -0.377563, 0.183106, -0.366211, -0.915528
309707, 0.692505, 0.635254, -0.369141, 1.098633, -1.342773, -1.647950
309727, 0.662354, 0.633423, -0.384521, 0.671387, 1.037598, -1.525879
309747, 0.677124, 0.632202, -0.384888, 0.183106, 3.906251, -0.610352
309767, 0.674683, 0.627808, -0.397705, -0.854492, 7.446291, -0.793457
309787, 0.713135, 0.626831, -0.385620, -4.211426, 6.469728, -2.075195
309807, 0.726807, 0.634888, -0.351563, -4.638672, 0.427246, -3.173829
309827, 0.804810, 0.589355, -0.313965, -2.807618, -14.953617, -5.859377
309847, 0.747925, 0.521973, -0.285889, -2.441406, -34.851074, 6.042482
309867, 0.700073, 0.521851, -0.423706, -21.606445, -35.034180, 15.380863
309887, 0.602905, 0.649414, -0.330444, -45.166031, -12.878422, 31.188972
309907, 0.730347, 0.845093, -0.244873, -41.015625, -21.972656, 21.789551
309927, 0.540405, 0.829956, -0.321533, -26.428230, -23.925789, 7.019045
309947, 0.510620, 0.789795, -0.482788, -22.399910, 0.366211, 4.821777
309967, 0.586670, 0.790771, -0.320435, -10.925293, 15.258793, -6.042482
309987, 0.734009, 0.742432, -0.375854, 0.915528, 10.131836, -18.188477
310007, 0.795898, 0.730957, -0.401245, 18.493652, -8.300781, -36.987305
310027, 0.621094, 0.574463, -0.509277, 38.208008, -23.803719, -51.269547
310047, 0.400635, 0.411987, -0.570557, 29.846199, -3.479005, -27.893074
310067, 0.523438, 0.353638, -0.489502, -0.732422, 33.081055, 12.512211
310087, 1.285645, 0.634888, -0.098145, -25.451668, 22.094727, 20.324707
310107, 1.428223, 0.595337, 0.086182, 4.333496, -85.693359, -26.245125
310127, 0.468872, 0.513428, -0.222412, -4.821777, -98.510773, -13.854984
310147, 0.580811, 0.785034, -0.193604, -42.846680, -62.988297, 23.132332
310167, 0.542358, 0.929199, -0.489990, -42.480469, -68.054199, -11.779789
310187, 0.154785, 0.902466, -0.500854, -34.667969, -38.818359, -19.287109
310207, 0.055298, 0.829224, -0.582642, -16.601563, -11.596684, -12.695316
310227, -0.036621, 0.755859, -0.694214, -0.549316, 31.494148, -1.098633
310247, 0.183105, 0.714111, -0.678223, 13.793949, 79.589844, 14.404301
310267, 0.579834, 0.722778, -0.537354, 46.447769, 81.237793, 2.685547
310287, 0.631470, 0.531616, -0.565186, 52.978531, 74.645996, 5.981447
310307, 0.686890, 0.424072, -0.500732, 30.456551, 76.599121, 19.592285
310327, 0.807251, 0.399658, -0.253296, -6.835939, 78.186035, 41.137695
310347, 1.318237, 0.700562, 0.128052, -43.457031, 61.645523, 32.043457
310367, 1.248901, 0.720337, 0.083862, -8.239746, -7.263186, -7.751467
310387, 0.954834, 0.689209, -0.078613, 12.634281, -57.434097, -30.090340
310407, 0.699707, 0.682983, -0.206421, 26.550301, -66.101074, -38.574219
310427, 0.572998, 0.651978, -0.430054, 24.414070, -67.321777, -35.888672
310447, 0.396362, 0.659546, -0.485352, 16.479492, -45.471207, -24.780281
