timestamp,ax,ay,az,gx,gy,gz
2274097, 0.282471, 0.841431, -0.441528, 7.995607, 7.446291, 12.390141
2274117, 0.327515, 0.828979, -0.489258, 6.652834, 8.483887, 14.038090
2274137, 0.314453, 0.817017, -0.502686, 3.784181, 11.413578, 15.014652
2274157, 0.274292, 0.811523, -0.517578, -1.831055, 15.441898, 18.310547
2274177, 0.369995, 0.806519, -0.526855, -10.864258, 23.559578, 18.615723
2274197, 0.359741, 0.804565, -0.508667, -16.235352, 32.043457, 19.531250
2274217, 0.468872, 0.804077, -0.486206, -22.216805, 31.372078, 15.502934
2274237, 0.586304, 0.814087, -0.434937, -25.939949, 25.756844, 4.821777
2274257, 0.654663, 0.829712, -0.369629, -25.573738, 10.314941, -12.146000
2274277, 0.546875, 0.828491, -0.195190, -7.873537, -25.512703, -22.827156
2274297, 0.431152, 0.825928, -0.393555, 5.676271, -36.254883, -16.174316
2274317, 0.377319, 0.814941, -0.368896, 1.464844, -52.490250, -13.793949
2274337, 0.198975, 0.837158, -0.338989, 3.417970, -40.161133, 5.676271
2274357, 0.369995, 0.874634, -0.375000, 2.685547, -25.390633, 13.244633
2274377, 0.343750, 0.902100, -0.329956, -0.610352, -28.808601, 6.164553
2274397, 0.309692, 0.884766, -0.359009, 1.647950, -24.719246, 3.723145
2274417, 0.317139, 0.880493, -0.376953, 1.403809, -20.629883, 5.004883
2274437, 0.338989, 0.887695, -0.396851, -1.342773, -18.432617, 1.770020
2274457, 0.299805, 0.879150, -0.411499, -4.699707, -11.413578, 2.807618
2274477, 0.254761, 0.887939, -0.438232, -5.126953, -5.310059, -0.671387
2274497, 0.255493, 0.882568, -0.446045, -1.892090, -4.394531, -7.507326
2274517, 0.210205, 0.846069, -0.473145, -2.990724, 6.469728, -7.812502
2274537, 0.175781, 0.838257, -0.528076, -2.624512, 20.385742, -2.990724
2274557, 0.247437, 0.820557, -0.523438, -2.685547, 33.264160, 8.728027
2274577, 0.392090, 0.796509, -0.557983, -7.202150, 39.550781, 7.202150
2274597, 0.382935, 0.822266, -0.461304, -6.042482, 30.273445, 8.911133
2274617, 0.454834, 0.822266, -0.452393, -8.728027, 20.141602, 0.000000
2274637, 0.442017, 0.828613, -0.415527, -5.371094, 20.446777, 3.540040
2274657, 0.462891, 0.833374, -0.419922, -6.469728, 7.690432, -7.019045
2274677, 0.409546, 0.821167, -0.390137, -5.920412, 6.774904, -6.835939
2274697, 0.403320, 0.822754, -0.371094, -6.347658, 7.690432, -2.258301
2274717, 0.454590, 0.830933, -0.352051, -8.422852, 7.629396, 2.319336
2274737, 0.604736, 0.862915, -0.315308, -6.835939, -12.939457, -5.615236
2274757, 0.444824, 0.860474, -0.344360, -0.549316, -46.142593, -17.028809
2274777, 0.417480, 0.852295, -0.385620, 1.464844, -52.734390, -20.751953
2274797, 0.199585, 0.812866, -0.374146, -0.793457, -54.687515, -15.991215
2274817, 0.211792, 0.864624, -0.331543, -1.159668, -23.437508, 12.817387
2274837, 0.313110, 0.855347, -0.381104, -3.967286, -9.399414, 19.897461
2274857, 0.351440, 0.886475, -0.362671, -6.591799, -1.403809, 20.080566
2274877, 0.404785, 0.899902, -0.353149, -1.037598, -3.173829, 9.216309
2274897, 0.306763, 0.893066, -0.397217, 4.455566, -11.169437, 0.244141
2274917, 0.286011, 0.879883, -0.433960, -1.403809, -5.859377, -0.488281
2274937, 0.215454, 0.905518, -0.387207, -5.920412, 1.220703, 2.563477
2274957, 0.250488, 0.871338, -0.431274, -6.164553, 10.131836, 6.713869
2274977, 0.316650, 0.860352, -0.443115, -5.126953, 15.136723, 7.202150
2274997, 0.314331, 0.861450, -0.432007, -6.164553, 12.023930, 4.943848
2275017, 0.337524, 0.827515, -0.447876, -3.356935, 12.146000, 6.347658
2275037, 0.312622, 0.846313, -0.393677, -0.732422, 10.742188, 7.080080
2275057, 0.413208, 0.837402, -0.455811, -2.746582, 14.465336, 5.187988
2275077, 0.438721, 0.859253, -0.441284, -4.089355, 12.268070, 1.770020
2275097, 0.433228, 0.863037, -0.426147, -7.446291, 0.549316, -14.526371
2275117, 0.330688, 0.870117, -0.410278, -7.690432, 3.112794, -16.662598
2275137, 0.272339, 0.862183, -0.396851, -5.249023, 4.150391, -16.601563
2275157, 0.307495, 0.866333, -0.374268, -1.342773, 6.652834, -16.296387
2275177, 0.310303, 0.854126, -0.385376, 6.591799, 7.690432, -12.390141
2275197, 0.374390, 0.865967, -0.401123, 14.587406, -3.295899, -15.197758
2275217, 0.254028, 0.829224, -0.441528, 15.563969, -1.708985, -11.962894
2275237, 0.347046, 0.848633, -0.427979, 9.216309, 6.958010, -3.723145
2275257, 0.336182, 0.851563, -0.427856, 14.465336, 4.211426, -10.498047
2275277, 0.292603, 0.826660, -0.437622, 6.164553, 12.756351, -3.295899
2275297, 0.445190, 0.869141, -0.328369, 0.000000, 17.211914, 3.479005
2275317, 0.449463, 0.864014, -0.301880, -3.601075, 7.995607, -1.159668
2275337, 0.531372, 0.886719, -0.264038, -9.277344, 3.540040, -1.098633
2275357, 0.478516, 0.904419, -0.230591, 1.647950, -13.366703, -12.207035
2275377, 0.382080, 0.887085, -0.308228, 10.559082, -20.141602, -17.578125
2275397, 0.305176, 0.871582, -0.379150, 13.549809, -24.902351, -17.822266
2275417, 0.255249, 0.865967, -0.427002, 12.817387, -22.521980, -14.587406
2275437, 0.191650, 0.864136, -0.449829, 9.765625, -13.549809, -9.399414
2275457, 0.214111, 0.860352, -0.455078, 6.286623, 0.366211, -3.601075
2275477, 0.249390, 0.860352, -0.451782, 2.929688, 7.141115, 1.098633
2275497, 0.313110, 0.859497, -0.449097, -0.610352, 9.460449, 2.136230
2275517, 0.350586, 0.887451, -0.372803, -0.854492, 11.413578, -2.441406
2275537, 0.388062, 0.920654, -0.271240, 7.019045, 14.160160, -6.591799
2275557, 0.713745, 1.022217, -0.080078, 30.029305, 10.620117, -23.376472
2275577, 0.641968, 1.204102, -0.072510, 95.275909, -59.082047, -56.823746
2275597, 0.562134, 1.179565, -0.188843, 125.427277, -112.915070, -34.729004
2275617, 0.388916, 0.688232, -0.608032, 106.445343, -148.986816, -39.611816
2275637, 0.052002, 0.542358, -0.650146, 62.255875, -140.441895, -58.288589
2275657, -0.307007, 0.687866, -0.649292, 50.109879, -106.872589, -38.879395
2275677, -0.358032, 0.683228, -0.729004, 46.325699, -61.645523, -7.568361
2275697, -0.251587, 0.555542, -0.798950, 17.150879, -5.126953, 29.785164
2275717, -0.107056, 0.542847, -0.825439, -12.084965, 24.536140, 38.879395
2275737, 0.045654, 0.682251, -0.731445, -31.494148, 44.311539, 30.151375
2275757, 0.138306, 0.819092, -0.613647, -25.817879, 48.828140, 17.211914
2275777, 0.159302, 0.816895, -0.605225, -15.563969, 46.752945, 18.981934
2275797, 0.218140, 0.805420, -0.634888, -12.207035, 39.794922, 22.277840
2275817, 0.237305, 0.824219, -0.630493, -13.183598, 36.987305, 19.287109
2275837, 0.269287, 0.852173, -0.578369, -9.216309, 39.855957, 14.465336
2275857, 0.325195, 0.861816, -0.577148, -2.075195, 36.376953, 5.981447
2275877, 0.343262, 0.836670, -0.577393, 5.371094, 24.658211, -1.708985
2275897, 0.262817, 0.731934, -0.607666, 4.211426, 13.977055, -6.774904
2275917, 0.204590, 0.721436, -0.588501, -0.915528, 16.845703, -7.019045
2275937, 0.174316, 0.748901, -0.561523, -2.136230, 23.864754, -3.173829
2275957, 0.192261, 0.772949, -0.549561, 1.159668, 31.738289, 0.366211
2275977, 0.231567, 0.773682, -0.562744, 0.915528, 33.508301, 1.770020
2275997, 0.242676, 0.729492, -0.565308, -0.244141, 32.104492, 1.770020
2276017, 0.231689, 0.726318, -0.552734, -5.493164, 35.339355, 2.990724
2276037, 0.246216, 0.791626, -0.509766, -6.103518, 39.428711, 10.375977
2276057, 0.309692, 0.811768, -0.492798, -2.868653, 44.494644, 15.930180
2276077, 0.413818, 0.796143, -0.531128, -6.103518, 40.283203, 6.225588
2276097, 0.418579, 0.815308, -0.495605, -7.568361, 30.456551, -1.708985
2276117, 0.391479, 0.815308, -0.486816, -7.202150, 23.071297, -5.432129
2276137, 0.357300, 0.806519, -0.485474, -7.995607, 18.859863, -4.760742
2276157, 0.342285, 0.835938, -0.448975, -7.202150, 17.395020, -1.342773
2276177, 0.360352, 0.855225, -0.443115, -3.845216, 15.563969, 0.671387
2276197, 0.351318, 0.841431, -0.470581, -2.685547, 14.160160, -3.295899
2276217, 0.344971, 0.825439, -0.473999, -4.028320, 8.483887, -7.507326
2276237, 0.317627, 0.837402, -0.469604, -2.990724, 2.990724, -9.643555
2276257, 0.291748, 0.851929, -0.447876, 0.915528, 1.647950, -4.882813
2276277, 0.306885, 0.817871, -0.473999, 2.502441, 7.507326, -2.380371
2276297, 0.324585, 0.816406, -0.472168, 0.732422, 9.521484, -2.990724
2276317, 0.321899, 0.827637, -0.470581, 0.488281, 9.399414, 0.366211
2276337, 0.314941, 0.837891, -0.473267, 1.098633, 10.681152, 2.075195
2276357, 0.362427, 0.819946, -0.473022, 2.807618, 7.507326, 2.441406
2276378, 0.377197, 0.795288, -0.499878, 0.122070, 3.479005, 0.183106
2276398, 0.336914, 0.779419, -0.498291, -2.990724, 0.000000, -2.319336
2276418, 0.280396, 0.782349, -0.540283, -7.873537, 6.713869, 1.464844
2276438, 0.269409, 0.967285, -0.485229, -13.366703, 16.235352, 0.427246
2276458, 0.375122, 0.861572, -0.497314, -1.831055, 14.648441, 12.207035
2276478, 0.368774, 0.819580, -0.539185, -9.887695, 5.310059, 10.437012
2276498, 0.349854, 0.819824, -0.475830, -10.131836, 7.141115, 11.962894
2276518, 0.373657, 0.819946, -0.453979, -10.864258, 3.540040, 11.901859
2276538, 0.388428, 0.825928, -0.455200, -9.155273, 5.249023, 10.742188
2276558, 0.399414, 0.825684, -0.436523, -7.995607, 5.004883, 8.483887
2276578, 0.395752, 0.828613, -0.428345, -6.042482, 3.540040, 7.080080
2276598, 0.408325, 0.828125, -0.425537, -3.540040, 1.770020, 5.310059
2276618, 0.398682, 0.826538, -0.422729, -1.220703, 1.159668, 3.417970
2276638, 0.398438, 0.821411, -0.431763, 1.708985, 0.244141, 0.915528
2276658, 0.400146, 0.818970, -0.435547, 3.173829, -2.258301, 0.427246
2276678, 0.415894, 0.819702, -0.439941, 3.967286, -5.249023, -1.464844
2276698, 0.396606, 0.821533, -0.447510, 4.821777, -8.239746, -3.112794
2276718, 0.366455, 0.815796, -0.462891, 4.760742, -8.239746, -3.417970
2276738, 0.342285, 0.816772, -0.462646, 4.699707, -4.821777, -1.647950
2276758, 0.366455, 0.814453, -0.473267, 3.784181, -2.380371, -0.793457
2276778, 0.374878, 0.813232, -0.466553, 3.295899, -2.075195, -0.793457
2276798, 0.369507, 0.814575, -0.464844, 2.868653, -2.685547, -0.427246
2276818, 0.398193, 0.813843, -0.464111, 3.112794, -4.760742, -1.403809
2276838, 0.379517, 0.815430, -0.461304, 3.479005, -5.920412, -2.624512
