timestamp,ax,ay,az,gx,gy,gz
1376928, 0.790283, 1.057373, 0.618652, -2.624512, -33.996582, -12.817387
1376948, 0.234619, 0.958740, -0.347534, 18.310547, -84.655762, -23.498543
1376968, 0.201904, 0.897339, -0.189209, -14.831547, -37.902832, 0.793457
1376988, 0.194336, 1.003418, -0.041626, -7.934572, -61.767593, 17.333984
1377008, 0.168457, 1.073120, -0.047119, 5.859377, -63.415543, 21.850586
1377028, -0.026245, 1.064209, -0.156372, 11.047363, -63.293472, 14.648441
1377048, -0.226685, 1.024048, -0.286499, 4.821777, -48.767105, 12.573246
1377068, -0.348511, 1.030518, -0.334717, -3.662110, -40.954590, 16.479492
1377088, -0.519531, 0.989136, -0.346313, -11.291508, -6.591799, 35.400391
1377108, -0.349121, 0.988770, -0.425537, -13.488773, 22.277840, 40.527344
1377128, -0.184204, 1.027710, -0.391113, -16.235352, 38.146973, 29.418953
1377148, -0.144287, 1.021484, -0.443359, -10.986328, 43.701172, 4.882813
1377168, 0.012817, 0.974731, -0.441650, -3.662110, 46.630875, -23.315437
1377188, 0.137085, 0.918823, -0.417114, 15.014652, 50.354019, -58.288589
1377208, 0.173462, 0.866699, -0.456665, 13.977055, 59.021011, -58.532730
1377228, 0.297241, 0.855957, -0.449463, 2.990724, 58.166519, -44.494644
1377248, 0.388672, 0.853027, -0.377319, -4.455566, 56.091324, -29.846199
1377268, 0.469727, 0.857910, -0.384399, -6.835939, 50.048843, -22.766121
1377288, 0.518066, 0.882324, -0.334106, -5.798342, 40.771484, -18.188477
1377308, 0.537964, 0.863403, -0.327759, -3.112794, 31.250008, -16.784668
1377328, 0.484375, 0.876343, -0.298706, -1.647950, 23.681648, -8.056641
1377348, 0.482056, 0.905029, -0.237061, 6.713869, 11.840824, 0.488281
1377368, 0.531006, 0.930176, -0.271362, 20.080566, -7.507326, -3.234864
1377388, 0.490967, 0.877930, -0.517944, 6.591799, -31.250008, -45.959488
1377408, 0.283203, 0.904541, -0.402466, -2.380371, -50.659195, -61.645523
1377428, 0.057861, 0.909424, -0.381958, -6.347658, -67.260742, -60.119644
1377448, -0.059448, 0.922485, -0.347656, -8.972168, -77.636719, -47.607437
1377468, -0.236206, 0.945435, -0.256348, -9.948730, -52.063004, -20.080566
1377488, -0.235229, 1.012695, -0.069946, 2.868653, -15.563969, 17.700195
1377508, -0.135376, 0.995117, -0.102173, 16.723633, 16.052246, 45.043961
1377528, 0.101807, 0.966064, -0.218750, 13.916019, 34.545898, 62.438980
1377548, 0.353638, 0.965332, -0.229492, 4.028320, 22.583015, 65.368652
1377568, 0.427612, 0.973511, -0.210205, -1.708985, -22.338875, 46.142593
1377588, 0.281860, 0.959473, -0.319336, -2.868653, -45.410172, 32.104492
1377608, 0.212402, 0.950806, -0.336548, 1.831055, -56.884781, 14.648441
1377628, 0.011353, 0.905151, -0.477905, 6.103518, -48.950211, 1.953125
1377648, -0.083130, 0.896240, -0.537598, 5.493164, -33.935547, -1.831055
1377668, -0.099854, 0.876465, -0.565796, 3.723145, -15.808109, -2.136230
1377688, -0.044678, 0.874146, -0.547363, 0.610352, -4.699707, 2.319336
1377708, 0.037842, 0.882690, -0.514771, 4.882813, -3.173829, 0.854492
1377728, 0.071045, 0.868774, -0.568604, 6.042482, -1.770020, -4.882813
1377748, 0.070679, 0.856689, -0.635010, -12.573246, 6.530764, -2.929688
1377768, 0.074951, 0.918945, -0.401978, -30.517586, 1.831055, 5.249023
1377788, 0.090576, 0.935547, -0.336060, -30.395515, 2.807618, 9.887695
1377808, 0.130249, 0.950073, -0.285522, -27.404793, 7.202150, 10.864258
1377828, 0.178223, 0.966919, -0.231689, -20.751953, 5.126953, 10.314941
1377848, 0.202271, 0.980103, -0.191162, -10.559082, 4.089355, 6.164553
1377868, 0.179810, 0.992432, -0.159790, 2.380371, 8.972168, 1.098633
1377888, 0.144409, 0.995239, -0.154541, 16.967773, 12.512211, -0.427246
1377908, 0.118164, 0.987915, -0.164063, 31.738289, 19.897461, 0.183106
1377928, 0.162109, 0.988892, -0.106445, 53.100601, 13.854984, 3.662110
1377948, 0.300049, 1.029907, -0.298706, 79.406738, 6.652834, -0.427246
1377968, 0.379517, 0.959229, -0.529541, 77.209473, -1.342773, -13.183598
1377988, 0.397095, 0.882690, -0.621582, 61.706558, -21.606445, -35.461426
1378008, 0.301514, 0.819580, -0.574951, 46.691910, -50.415054, -52.673355
1378028, 0.115234, 0.790405, -0.512329, 38.330078, -70.678711, -54.260269
1378048, -0.050781, 0.778198, -0.523682, 32.653809, -68.847656, -45.104996
1378068, -0.155640, 0.785278, -0.557861, 25.024422, -46.264664, -30.822762
1378088, -0.191040, 0.796021, -0.570190, 17.272949, -18.554688, -15.502934
1378108, -0.169189, 0.812988, -0.571899, 10.925293, 2.197266, -0.732422
1378128, -0.105713, 0.817627, -0.561890, 4.943848, 15.686039, 15.136723
1378148, 0.003418, 0.820923, -0.538818, -2.990724, 30.639656, 19.042969
1378168, 0.068604, 0.829468, -0.511963, -6.103518, 33.752441, 19.958496
1378188, 0.117188, 0.848389, -0.496948, -6.591799, 29.907234, 18.127441
1378208, 0.139160, 0.878662, -0.512939, -7.080080, 24.414070, 13.610844
1378228, 0.146851, 0.898926, -0.522217, -7.629396, 20.935059, 8.911133
1378248, 0.161133, 0.903442, -0.501221, -7.141115, 17.761230, 4.272461
1378268, 0.189209, 0.899414, -0.464966, -4.150391, 10.681152, 0.305176
1378288, 0.174683, 0.905151, -0.454346, 0.671387, 0.549316, -3.479005
1378308, 0.133667, 0.899292, -0.468994, 3.601075, -4.333496, -7.080080
1378328, 0.102173, 0.883301, -0.495728, 3.967286, -0.305176, -11.230473
1378348, 0.093262, 0.882080, -0.490356, 3.112794, -0.366211, -10.314941
1378369, 0.074585, 0.886719, -0.473999, 4.394531, -4.943848, -7.629396
1378389, 0.052734, 0.866089, -0.474609, 6.042482, -9.155273, -4.394531
1378409, 0.034912, 0.848511, -0.492432, 5.798342, -7.995607, -1.464844
1378429, 0.014282, 0.853271, -0.519653, 3.295899, -2.746582, 1.159668
1378449, 0.001343, 0.881226, -0.536377, 0.610352, 4.028320, 4.699707
1378469, 0.016113, 0.880981, -0.528931, -1.770020, 8.056641, 9.338379
1378489, 0.055298, 0.854248, -0.509766, -2.990724, 13.183598, 12.817387
1378509, 0.099121, 0.850952, -0.503906, -4.150391, 15.441898, 12.390141
1378529, 0.112183, 0.865723, -0.512207, -5.432129, 16.540527, 12.207035
1378549, 0.136230, 0.874390, -0.507324, -6.652834, 16.845703, 12.329105
1378569, 0.147583, 0.892700, -0.482910, -6.958010, 14.221195, 12.207035
1378589, 0.160278, 0.912964, -0.439819, -3.479005, 10.986328, 11.779789
1378609, 0.176270, 0.914551, -0.401978, 3.051759, 6.225588, 10.620117
1378629, 0.179443, 0.908447, -0.402588, 10.620117, -0.976563, 8.483887
1378649, 0.171143, 0.899292, -0.456787, 15.197758, -8.361816, 4.272461
1378669, 0.147827, 0.898071, -0.515381, 15.380863, -14.160160, 0.549316
1378689, 0.110474, 0.864258, -0.521606, 14.099125, -20.568848, 2.319336
1378709, 0.122803, 0.826660, -0.520874, 12.756351, -18.371582, 2.990724
1378729, 0.114380, 0.813599, -0.543457, 9.887695, -12.451176, 3.417970
1378749, 0.095581, 0.813477, -0.563477, 5.737307, -5.187988, 5.126953
1378769, 0.084839, 0.803955, -0.583252, 0.427246, 2.014160, 6.958010
1378789, 0.096680, 0.829956, -0.594971, -4.943848, 8.117676, 7.934572
1378809, 0.143433, 0.841797, -0.579834, -10.192871, 11.108402, 7.934572
1378829, 0.210815, 0.860352, -0.536377, -12.023930, 7.019045, 6.958010
1378849, 0.288818, 0.874146, -0.477173, -10.314941, -1.220703, 2.685547
1378869, 0.322876, 0.921265, -0.447510, -4.333496, -21.728516, -16.113281
1378889, 0.272705, 0.934204, -0.472046, 1.159668, -30.456551, -29.663094
1378909, 0.255981, 0.939209, -0.554199, -0.610352, -38.940430, -47.180191
1378929, 0.199097, 0.903564, -0.634888, -11.230473, -53.833023, -59.692398
1378949, 0.147095, 0.871460, -0.590454, -19.226074, -58.532730, -67.687988
1378969, 0.038452, 0.854858, -0.509888, -21.972656, -59.021011, -72.143555
1378989, -0.082886, 0.822021, -0.476929, -23.742683, -52.551285, -71.228027
1379009, -0.136597, 0.785156, -0.517456, -33.691406, -43.457031, -67.260742
1379029, -0.146362, 0.785767, -0.587646, -53.649918, -43.151855, -67.687988
1379049, -0.149536, 0.789917, -0.638550, -77.392578, -34.606934, -71.899414
1379069, -0.209961, 0.795166, -0.508667, -105.896027, -31.188972, -74.768066
1379089, -0.255493, 0.814209, -0.379639, -108.337433, -27.282722, -65.734863
1379109, -0.247070, 0.804932, -0.344604, -113.098175, -22.949226, -58.776871
1379129, -0.217285, 0.734863, -0.336670, -120.544464, -14.587406, -56.030289
1379149, -0.205078, 0.726196, -0.263916, -127.868683, -12.084965, -55.603043
1379169, -0.294922, 0.796265, -0.230957, -138.793945, -30.700691, -51.208511
1379189, -0.367065, 0.889771, -0.090210, -140.563965, -45.410172, -28.320320
1379209, -0.318726, 0.854980, 0.036133, -133.911133, -46.752945, -6.347658
1379229, -0.222656, 0.738892, -0.042847, -142.700195, -37.780762, -6.896975
1379249, -0.266724, 0.864990, 0.124146, -153.686523, -46.264664, -14.099125
1379269, -0.210815, 1.175049, 0.315918, -143.554688, -75.256348, -13.061527
1379289, -0.136719, 1.076538, 0.414429, -126.464874, -92.407257, -23.986824
1379309, -0.142212, 0.964233, 0.426025, -105.834991, -105.651886, -37.414551
1379329, -0.185547, 0.846680, 0.388794, -96.252472, -93.811066, -53.405777
1379349, -0.315796, 0.825317, 0.398804, -89.538605, -92.163116, -59.265152
1379369, -0.500366, 0.883301, 0.484497, -83.618164, -84.655762, -47.912613
1379389, -0.453247, 0.857422, 0.597168, -69.641113, -53.222672, -29.296883
1379409, -0.326660, 0.822754, 0.631104, -43.823242, -30.761726, -19.042969
1379429, -0.244141, 0.751465, 0.525024, -28.808601, -23.620613, -15.686039
1379449, -0.328125, 0.739258, 0.385620, -45.654312, -32.409668, -18.310547
1379469, -0.345215, 0.742065, 0.485962, -58.471695, -32.714844, -11.291508
1379489, -0.329224, 0.770508, 0.565918, -57.189957, -35.461426, -6.164553
1379509, -0.294434, 0.751221, 0.568726, -53.710953, -30.700691, -6.530764
1379529, -0.365845, 0.793457, 0.581299, -51.635757, -30.273445, -4.455566
1379549, -0.389893, 0.794678, 0.620483, -50.598160, -26.977547, 2.990724
1379569, -0.312866, 0.750366, 0.612915, -50.964371, -26.672371, 5.065918
1379589, -0.260864, 0.709351, 0.573608, -57.006851, -24.902351, 3.845216
1379609, -0.198242, 0.697632, 0.582397, -62.561050, -24.108894, 2.746582
1379629, -0.204468, 0.691772, 0.617798, -66.894531, -28.991707, 2.502441
1379649, -0.264282, 0.649292, 0.653809, -73.364258, -33.630371, 10.864258
1379669, -0.229004, 0.635254, 0.722290, -76.232910, -40.466309, 21.362305
1379689, -0.174438, 0.610718, 0.773193, -74.035645, -39.123535, 29.418953
1379709, -0.054810, 0.563354, 0.791870, -71.777344, -33.874512, 31.494148
1379729, -0.001831, 0.510498, 0.803101, -71.594238, -41.992188, 23.193367
1379749, -0.105225, 0.484985, 0.830322, -71.777344, -59.631363, 15.319828
1379769, -0.307129, 0.427734, 0.858398, -75.866699, -65.368652, 17.822266
1379789, -0.300903, 0.494263, 0.978271, -68.786621, -21.972656, 25.207527
1379809, -0.232300, 0.495361, 0.915405, -56.823746, -25.939949, 35.766602
1379829, -0.144165, 0.551514, 0.891968, -54.321304, -33.508301, 46.203629
1379849, -0.103149, 0.572388, 0.970093, -44.921890, -36.804199, 46.508804
1379869, -0.067993, 0.561523, 0.991577, -27.954109, -32.226563, 37.963867
1379889, -0.052490, 0.532471, 0.968994, -13.488773, -20.996094, 23.803719
1379909, -0.011353, 0.497803, 0.946899, -1.647950, -14.404301, 10.253906
1379929, 0.002441, 0.457642, 0.896851, 3.295899, -18.737793, 6.408693
1379949, -0.098267, 0.404663, 0.894043, -1.220703, -16.967773, 14.892582
1379969, -0.093750, 0.407471, 0.956299, 0.793457, -17.822266, 29.541023
1379989, -0.040161, 0.435913, 0.973755, 6.774904, -20.874023, 36.071777
1380009, 0.025024, 0.447632, 0.917603, 12.329105, -28.076180, 26.672371
1380029, -0.002319, 0.415527, 0.891846, 11.962894, -22.644051, 16.174316
1380049, 0.010864, 0.411987, 0.882202, 14.282230, -8.728027, 13.854984
1380069, 0.096436, 0.437012, 0.857910, 16.662598, 1.281738, 12.573246
1380089, 0.140991, 0.460449, 0.874512, 18.493652, 6.347658, 13.244633
1380109, 0.126099, 0.483398, 0.852661, 15.747074, 4.516602, 6.896975
1380129, 0.092529, 0.499878, 0.907715, 13.305668, 1.342773, -1.281738
1380149, 0.041138, 0.512817, 0.960938, 17.578125, -7.141115, -3.784181
1380169, 0.000488, 0.540039, 1.005615, 29.174812, -15.625004, 3.295899
1380189, -0.006104, 0.566650, 1.037598, 43.762207, -16.296387, 12.146000
1380209, -0.008545, 0.684326, 1.059448, 73.730469, -6.591799, 19.714355
1380229, 0.014404, 0.711060, 1.031128, 95.031769, 10.437012, 21.606445
1380249, 0.064941, 0.803955, 1.067749, 132.812500, 15.747074, 24.536140
1380269, 0.089600, 0.794556, 0.999634, 166.381836, 23.559578, 23.254402
1380289, 0.183472, 0.777344, 0.841919, 167.968750, 41.931152, 15.380863
1380309, 0.148071, 0.765869, 0.977295, 197.387756, 24.047859, 13.916019
1380329, 0.005737, 0.769775, 0.716919, 215.454163, -0.671387, 26.794441
1380349, 0.013550, 0.816162, 0.637817, 223.938049, -5.798342, 40.161133
1380369, 0.025635, 0.870239, 0.734741, 251.342834, -13.488773, 49.133316
1380389, -0.013550, 0.565063, 0.439453, 259.948730, 13.916019, 36.132813
1380449, 0.156006, 0.800903, 0.190674, 267.456055, -20.324707, -1.647950
1380489, 0.005615, 0.516724, -0.220825, 239.318909, -20.446777, -9.399414
1380509, -0.016724, 0.511108, -0.391113, 199.218811, 2.807618, -19.226074
1380529, 0.020386, 0.644775, -0.418823, 174.926758, 5.187988, -22.094727
1380549, -0.004395, 0.759399, -0.429199, 165.527344, 0.610352, -20.324707
1380609, 0.032471, 0.749634, -0.631958, 102.539093, 54.138199, -18.981934
1380629, 0.115967, 0.798218, -0.607300, 88.317871, 54.260269, -7.934572
1380649, 0.189575, 0.791626, -0.616211, 76.721191, 45.227066, -1.098633
1380669, 0.215942, 0.786743, -0.647705, 65.185547, 43.762207, 0.488281
1380689, 0.244629, 0.789429, -0.651733, 52.246109, 50.964371, -0.915528
1380709, 0.310303, 0.789307, -0.626221, 42.907715, 48.828140, -2.441406
1380729, 0.352539, 0.772583, -0.643677, 34.240723, 27.038582, -6.042482
1380749, 0.338135, 0.774780, -0.711426, 17.150879, 2.807618, -10.681152
1380769, 0.253418, 0.844360, -0.682861, -10.559082, -20.019531, -6.591799
1380789, 0.218506, 0.939697, -0.620850, -16.723633, -22.033691, -0.610352
1380829, 0.275024, 0.928833, -0.505859, 10.253906, -5.981447, -3.234864
1380849, 0.292114, 0.817261, -0.559204, 19.897461, -10.437012, -12.512211
1380869, 0.270508, 0.737915, -0.606201, 20.019531, -23.681648, -21.118164
1380889, 0.221558, 0.704102, -0.623169, 14.526371, -38.635254, -31.677254
1380909, 0.112915, 0.737427, -0.607910, 14.038090, -46.936050, -37.048340
1380929, 0.007690, 0.750977, -0.617920, 17.395020, -46.142593, -34.729004
1380949, -0.049927, 0.750244, -0.698730, 20.385742, -42.419434, -25.451668
1380989, -0.069702, 0.756104, -0.720703, 15.930180, -9.399414, 0.854492
1381029, 0.077759, 0.670898, -0.716797, 12.634281, -1.098633, -1.342773
1381049, 0.083008, 0.713867, -0.726807, 6.591799, -10.437012, -1.953125
1381089, 0.020386, 0.766479, -0.707275, 4.333496, -23.193367, -4.699707
1381109, -0.013184, 0.747437, -0.696045, 5.676271, -23.315437, -4.577637
1381129, -0.042969, 0.721680, -0.697388, 7.934572, -23.193367, -1.098633
1381149, -0.034180, 0.698242, -0.727417, 3.540040, -15.563969, 2.319336
1381169, -0.012939, 0.720947, -0.715088, 2.258301, -13.610844, 5.432129
1381189, -0.007324, 0.755249, -0.709473, 3.662110, -11.962894, 4.760742
1381209, -0.012085, 0.733887, -0.705688, 5.371094, -12.146000, 3.906251
1381229, -0.021118, 0.705200, -0.728516, 4.577637, -12.451176, 3.845216
1381249, -0.022339, 0.709717, -0.731934, 1.403809, -14.892582, 5.920412
1381269, -0.039795, 0.727783, -0.705688, 1.403809, -15.441898, 7.202150
1381289, -0.061890, 0.743652, -0.688843, 3.540040, -9.521484, 7.629396
1381309, -0.055908, 0.745605, -0.687012, 6.774904, -1.037598, 7.446291
1381329, -0.031372, 0.712158, -0.706299, 7.629396, 3.540040, 8.117676
1381349, 0.032593, 0.675049, -0.740234, 2.685547, 2.136230, 9.582520
1381369, 0.047852, 0.683594, -0.773560, -0.732422, -0.122070, 5.310059
1381389, 0.054199, 0.690430, -0.775269, -2.441406, -4.699707, -0.122070
1381409, 0.034058, 0.694580, -0.766724, -5.493164, -9.094238, -3.356935
1381429, 0.013062, 0.727905, -0.721802, -6.896975, -13.305668, -2.868653
1381449, -0.007202, 0.730469, -0.683228, -4.150391, -12.573246, -0.854492
1381469, -0.026611, 0.729736, -0.696777, -2.807618, -7.263186, 0.122070
1381489, -0.030640, 0.740234, -0.693237, -3.051759, -1.342773, -1.220703
1381509, -0.018188, 0.753296, -0.684326, -1.586915, 2.563477, -4.577637
1381529, -0.010254, 0.739746, -0.695435, 2.258301, -5.004883, -4.089355
1381549, -0.016724, 0.730591, -0.707275, 3.173829, -13.732914, -0.122070
1381569, -0.028442, 0.714478, -0.719238, 2.746582, -18.981934, 1.037598
1381589, -0.060669, 0.721558, -0.732056, 0.549316, -15.441898, -0.122070
1381609, -0.070068, 0.723633, -0.716064, -0.610352, -8.544922, -1.892090
1381629, -0.051147, 0.700073, -0.715088, -0.427246, -4.943848, 0.000000
1381649, -0.042847, 0.691650, -0.730225, -1.953125, -5.737307, 3.540040
1381669, -0.041992, 0.707397, -0.734863, -4.394531, -6.774904, 5.737307
1381689, -0.040405, 0.720825, -0.715210, -5.249023, -4.943848, 5.737307
1381709, -0.034790, 0.729980, -0.706421, -5.065918, -3.601075, 4.821777
1381729, -0.036377, 0.736938, -0.694702, -4.577637, -3.356935, 4.150391
1381749, -0.027710, 0.732422, -0.693237, -2.929688, -6.347658, 5.432129
1381769, -0.042603, 0.738403, -0.708130, -2.990724, -7.751467, 6.713869
1381789, -0.047485, 0.749756, -0.695801, -3.723145, -7.019045, 6.164553
1381809, -0.033691, 0.740845, -0.690674, -3.601075, -2.136230, 3.479005
1381829, -0.014771, 0.745728, -0.686646, -2.807618, -0.305176, 3.112794
1381849, -0.010010, 0.746948, -0.687134, -1.403809, -1.770020, 2.746582
1381869, -0.002319, 0.751221, -0.695313, 0.000000, -2.502441, 1.647950
1381889, -0.013916, 0.756348, -0.694946, 0.915528, -3.356935, -1.281738
1381909, -0.043091, 0.740356, -0.686768, 0.854492, -1.037598, -4.272461
1381929, -0.049927, 0.740723, -0.685547, 0.854492, 0.671387, -3.967286
1381949, -0.053467, 0.756226, -0.672241, 2.319336, 2.929688, -2.807618
1381969, -0.048340, 0.755371, -0.677246, 4.638672, 5.554201, -2.136230
1381989, -0.048340, 0.753052, -0.685303, 6.164553, 6.713869, -1.647950
1382009, -0.052612, 0.749023, -0.677856, 7.751467, 7.141115, -1.037598
1382029, -0.067383, 0.757446, -0.678955, 9.582520, 7.995607, 1.159668
1382049, -0.069214, 0.766724, -0.658691, 12.084965, 10.070801, 2.258301
1382069, -0.095947, 0.781006, -0.646729, 16.601563, 13.977055, 4.455566
1382089, -0.090454, 0.779297, -0.644287, 21.484375, 19.592285, 9.155273
1382109, -0.006836, 0.745850, -0.710938, 26.916512, 28.076180, 13.977055
1382149, 0.140991, 0.557861, -0.903442, 23.620613, 24.841316, 5.432129
1382169, 0.157349, 0.504028, -0.926270, 9.704590, 12.451176, -1.342773
1382189, 0.090576, 0.531494, -0.888550, -5.737307, -0.976563, -4.882813
1382209, 0.030396, 0.607056, -0.791992, -16.418457, -4.638672, -4.211426
1382229, -0.023560, 0.714722, -0.691772, -17.883301, -0.488281, -3.051759
1382249, -0.072754, 0.781250, -0.641479, -13.000492, 7.202150, 0.488281
1382269, -0.035767, 0.790039, -0.613770, -6.591799, 15.502934, 4.760742
1382289, 0.021973, 0.780396, -0.662964, 1.831055, 13.916019, 5.187988
1382309, 0.042725, 0.751709, -0.696655, 5.249023, 11.901859, 5.310059
1382329, 0.079834, 0.717896, -0.739014, 7.202150, 10.559082, 3.845216
1382349, 0.089966, 0.687744, -0.772827, 5.615236, 9.216309, 0.671387
1382369, 0.086304, 0.679321, -0.773560, 4.089355, 5.859377, 0.122070
1382389, 0.085205, 0.678711, -0.761597, 4.638672, 1.831055, 2.441406
1382409, 0.082275, 0.671753, -0.766846, 4.150391, -1.281738, 4.821777
1382429, 0.072144, 0.675537, -0.756958, 4.150391, -4.211426, 6.530764
1382449, 0.059814, 0.675415, -0.771851, 3.173829, -6.103518, 7.019045
1382469, 0.047241, 0.688965, -0.751099, 0.854492, -7.690432, 7.873537
1382489, 0.001953, 0.743286, -0.696533, 2.197266, -5.981447, 7.751467
1382509, 0.010376, 0.758911, -0.665039, 7.080080, -3.295899, 7.873537
1382529, 0.012451, 0.727905, -0.699707, 10.375977, 0.610352, 8.117676
1382549, 0.058228, 0.676392, -0.741943, 9.704590, 6.225588, 7.751467
1382569, 0.100098, 0.626221, -0.783691, 7.507326, 9.521484, 4.638672
1382589, 0.111694, 0.612305, -0.806274, 2.807618, 8.789063, 2.319336
1382609, 0.105713, 0.636597, -0.776123, -1.159668, 7.202150, 0.549316
1382629, 0.094849, 0.663818, -0.755127, -2.502441, 7.690432, -1.403809
1382649, 0.109497, 0.669922, -0.754639, -3.967286, 10.681152, -3.784181
1382669, 0.145508, 0.659790, -0.768311, -4.089355, 8.666992, -6.591799
1382689, 0.167969, 0.643921, -0.792847, -6.225588, 3.234864, -7.812502
1382709, 0.148193, 0.655029, -0.789795, -8.544922, -3.662110, -9.948730
1382729, 0.093384, 0.678955, -0.769287, -10.559082, -8.422852, -10.925293
1382749, 0.048218, 0.696411, -0.739258, -11.596684, -10.131836, -9.155273
1382769, 0.021973, 0.714111, -0.708862, -11.840824, -10.009766, -6.835939
1382789, 0.002563, 0.744141, -0.678101, -10.559082, -7.019045, -4.577637
1382809, -0.005615, 0.775513, -0.653809, -6.347658, -3.417970, -2.258301
1382829, -0.001831, 0.787109, -0.647461, 0.000000, 0.122070, 1.220703
1382849, 0.012451, 0.770752, -0.670532, 5.859377, 1.586915, 4.638672
1382869, 0.057495, 0.716675, -0.718628, 10.009766, 3.784181, 6.591799
1382889, 0.084717, 0.697266, -0.743286, 10.070801, 4.455566, 7.019045
1382909, 0.113281, 0.684204, -0.755737, 9.521484, 2.258301, 6.103518
1382929, 0.136230, 0.674927, -0.770386, 8.789063, -3.784181, 4.211426
1382949, 0.120972, 0.667725, -0.778076, 7.080080, -10.925293, 0.732422
1382969, 0.081177, 0.666016, -0.772095, 4.333496, -12.573246, -1.403809
1382989, 0.052612, 0.675537, -0.743530, 2.929688, -8.300781, -2.014160
1383009, 0.042847, 0.697998, -0.728027, 3.723145, -1.831055, -0.976563
1383029, 0.057251, 0.709351, -0.720337, 6.042482, 2.502441, 0.061035
1383049, 0.088989, 0.692139, -0.744873, 7.629396, 0.061035, -3.356935
1383069, 0.073730, 0.695435, -0.747437, 6.469728, -3.112794, -6.652834
1383089, 0.046753, 0.692993, -0.743652, 6.896975, -5.615236, -8.239746
1383109, 0.027466, 0.673828, -0.753906, 6.713869, -4.272461, -7.507326
1383129, 0.031494, 0.665039, -0.761475, 5.981447, -1.770020, -5.859377
1383149, 0.031982, 0.656982, -0.772949, 5.249023, 0.854492, -4.394531
1383169, 0.038452, 0.655762, -0.779419, 4.211426, 2.136230, -2.746582
1383189, 0.047485, 0.652832, -0.777100, 2.624512, 2.746582, -1.770020
1383209, 0.055786, 0.661255, -0.773804, 1.342773, 2.014160, -1.037598
1383229, 0.051758, 0.667969, -0.764404, 0.549316, 1.770020, -0.305176
1383249, 0.051636, 0.680176, -0.752319, 0.549316, 2.746582, 0.122070
1383269, 0.057129, 0.687378, -0.746948, 1.220703, 2.807618, 0.244141
1383289, 0.053955, 0.687378, -0.755249, 1.647950, 0.488281, 0.549316
1383309, 0.067261, 0.677124, -0.751953, 1.708985, -1.281738, 0.366211
1383329, 0.061890, 0.665771, -0.761475, 1.098633, -0.732422, -1.403809
1383349, 0.057739, 0.670288, -0.762573, 0.244141, 0.671387, -1.220703
1383369, 0.052002, 0.676636, -0.754517, 0.610352, 0.061035, -0.793457
1383389, 0.049316, 0.676392, -0.759521, 0.427246, 1.586915, -0.549316
1383409, 0.060181, 0.671509, -0.758667, 0.305176, 2.258301, -0.671387
1383429, 0.048218, 0.680176, -0.762817, -0.061035, -0.305176, -0.305176
1383449, 0.042725, 0.678955, -0.750488, 0.976563, 0.427246, 0.793457
1383469, 0.051147, 0.670654, -0.759155, 1.586915, 1.953125, 2.014160
1383489, 0.067505, 0.661255, -0.765625, 0.549316, 2.136230, 2.197266
1383509, 0.070068, 0.660278, -0.779053, -0.915528, 0.732422, 1.281738
1383529, 0.070190, 0.659058, -0.773071, -2.441406, -1.892090, 0.000000
1383549, 0.049805, 0.673950, -0.770996, -3.234864, -2.319336, -0.244141
1383569, 0.040894, 0.684448, -0.747559, -2.563477, -0.610352, 1.098633
1383589, 0.056885, 0.679077, -0.742432, -0.854492, 1.586915, 1.708985
1383609, 0.064819, 0.675171, -0.750488, -1.281738, 5.371094, 1.647950
1383629, 0.085571, 0.686768, -0.744629, -0.549316, 4.150391, 1.037598
1383649, 0.093872, 0.689575, -0.750488, -0.061035, 0.488281, 0.061035
1383669, 0.089844, 0.694336, -0.748047, 0.854492, -4.272461, -1.403809
1383689, 0.073608, 0.677490, -0.754639, 1.098633, -7.690432, -2.197266
1383709, 0.054810, 0.672852, -0.759155, 0.610352, -6.896975, -2.075195
1383729, 0.037598, 0.671021, -0.757446, 0.366211, -3.051759, -1.342773
1383749, 0.040894, 0.664429, -0.756348, 0.488281, 2.014160, 0.122070
1383769, 0.055786, 0.658691, -0.764893, 0.061035, 4.821777, 0.671387
1383789, 0.054321, 0.670654, -0.774658, -1.464844, 5.493164, 1.708985
1383809, 0.073730, 0.680298, -0.748535, -1.403809, 1.098633, 2.380371
1383829, 0.071045, 0.692261, -0.756470, -1.831055, -0.061035, 1.525879
1383849, 0.079834, 0.703125, -0.726807, -0.488281, -1.220703, 0.854492
1383869, 0.068970, 0.707397, -0.730103, 2.502441, -1.342773, 0.671387
1383889, 0.075684, 0.695557, -0.743286, 3.784181, -0.427246, 0.305176
1383909, 0.083130, 0.683472, -0.746460, 4.394531, -0.427246, -0.610352
1383929, 0.082886, 0.677246, -0.755981, 5.371094, -2.807618, -0.793457
1383949, 0.073364, 0.674561, -0.774170, 5.310059, -3.906251, -0.976563
1383969, 0.072266, 0.659058, -0.770996, 5.432129, -4.394531, -0.366211
1383989, 0.075073, 0.637695, -0.783081, 2.502441, -5.187988, -0.732422
1384009, 0.052490, 0.632690, -0.794922, -1.708985, -5.371094, -1.342773
1384029, 0.029053, 0.649536, -0.774170, -4.516602, -5.126953, -0.427246
1384049, 0.011719, 0.667236, -0.762329, -5.310059, -2.380371, 1.342773
1384069, 0.015503, 0.669678, -0.753784, -5.737307, 2.563477, 3.234864
1384089, 0.036133, 0.665527, -0.751709, -6.774904, 7.995607, 4.333496
1384109, 0.060425, 0.674316, -0.752075, -8.422852, 12.146000, 3.784181
1384129, 0.078125, 0.689697, -0.744507, -8.239746, 10.498047, 4.333496
1384149, 0.095581, 0.698975, -0.736694, -6.774904, 4.882813, 5.310059
1384169, 0.102783, 0.709839, -0.734009, -4.821777, 0.183106, 5.310059
1384189, 0.101196, 0.706665, -0.721069, -2.319336, -1.037598, 3.845216
1384209, 0.093262, 0.694092, -0.737061, -1.098633, -2.868653, 3.051759
1384229, 0.077026, 0.697021, -0.743774, -1.281738, -4.394531, 3.051759
1384249, 0.059448, 0.704102, -0.731934, -0.427246, -4.516602, 3.173829
1384269, 0.052368, 0.695801, -0.727051, 1.281738, -2.136230, 4.516602
1384289, 0.061646, 0.688232, -0.744629, 1.953125, 0.183106, 5.554201
1384309, 0.070679, 0.679688, -0.752319, 0.915528, 2.197266, 5.737307
1384329, 0.093506, 0.669189, -0.756104, 0.183106, 1.831055, 5.798342
1384349, 0.096924, 0.672363, -0.768555, -1.892090, 0.305176, 4.089355
1384369, 0.085449, 0.679199, -0.742432, -2.868653, 0.305176, 3.112794
1384389, 0.075928, 0.695679, -0.735840, -2.014160, 2.136230, 3.601075
1384409, 0.091431, 0.702026, -0.729126, -1.037598, 4.638672, 4.333496
1384429, 0.107788, 0.690430, -0.718018, 0.427246, 6.408693, 2.990724
1384449, 0.117310, 0.699463, -0.750488, 0.427246, 7.202150, 1.708985
1384469, 0.136108, 0.697632, -0.731812, 1.098633, 5.615236, 0.000000
1384489, 0.130737, 0.688110, -0.743042, 2.746582, 2.014160, -1.464844
1384509, 0.122192, 0.681641, -0.759521, 2.197266, -0.244141, -2.563477
1384529, 0.103638, 0.681885, -0.751709, 1.525879, -3.845216, -2.929688
1384549, 0.094238, 0.677368, -0.740723, 1.220703, -4.394531, -2.685547
1384569, 0.081055, 0.697998, -0.742065, 0.732422, -0.915528, -2.319336
1384589, 0.093628, 0.712280, -0.721680, 2.197266, 2.624512, -1.831055
1384609, 0.126099, 0.698730, -0.713135, 5.371094, 1.708985, -1.953125
1384629, 0.127319, 0.700073, -0.744507, 5.676271, -2.746582, -3.112794
1384649, 0.113770, 0.708252, -0.728149, 5.187988, -7.507326, -3.906251
1384669, 0.084595, 0.703979, -0.720947, 7.568361, -9.521484, -4.516602
1384689, 0.057495, 0.694946, -0.740967, 8.605957, -7.568361, -2.929688
1384709, 0.039673, 0.673706, -0.750977, 8.178711, -3.967286, -0.061035
1384729, 0.047119, 0.657837, -0.751099, 6.713869, -1.708985, 3.540040
1384749, 0.055786, 0.655273, -0.783691, 5.249023, 2.197266, 2.807618
1384769, 0.060791, 0.632690, -0.803467, 3.234864, 3.173829, 2.319336
1384789, 0.089478, 0.603271, -0.821533, -0.488281, 3.173829, 2.624512
1384809, 0.106689, 0.601196, -0.821899, -5.554201, 2.929688, 1.953125
1384829, 0.104004, 0.631714, -0.792969, -8.789063, 5.249023, 1.159668
1384849, 0.107544, 0.653442, -0.768188, -9.033203, 8.850098, 1.220703
1384869, 0.120483, 0.667725, -0.756470, -10.131836, 11.108402, 1.098633
1384889, 0.134521, 0.709229, -0.726685, -10.925293, 6.225588, 0.671387
1384909, 0.118774, 0.752319, -0.683350, -8.239746, 1.403809, -0.305176
1384929, 0.112793, 0.757568, -0.656006, -3.295899, -2.502441, -0.183106
1384949, 0.100342, 0.747803, -0.688965, 3.112794, -2.563477, 1.708985
1384969, 0.110596, 0.717651, -0.711060, 6.652834, -3.479005, 2.197266
1384989, 0.119385, 0.677979, -0.755249, 7.751467, -5.859377, 1.831055
1385009, 0.118286, 0.651855, -0.790283, 5.920412, -8.666992, 1.220703
1385029, 0.102173, 0.644409, -0.793213, 3.234864, -9.948730, 0.549316
1385049, 0.091431, 0.638062, -0.778564, 1.098633, -10.314941, 0.671387
1385069, 0.071777, 0.649658, -0.770996, -1.770020, -6.347658, 0.366211
1385089, 0.065674, 0.673706, -0.747681, -3.234864, -0.915528, 0.671387
1385109, 0.070190, 0.689453, -0.734253, -2.746582, 3.051759, 1.037598
1385129, 0.079956, 0.713745, -0.728882, -0.122070, 5.187988, 2.075195
1385149, 0.104736, 0.698120, -0.728516, 2.258301, 4.150391, 2.075195
1385169, 0.119629, 0.677124, -0.746826, 2.685547, 3.295899, 0.488281
1385189, 0.125244, 0.671631, -0.760498, 1.831055, 1.953125, -0.549316
1385209, 0.126343, 0.665161, -0.766113, 1.342773, -0.793457, -1.464844
1385229, 0.112061, 0.659668, -0.776733, 0.183106, -3.479005, -2.502441
1385249, 0.099731, 0.659912, -0.773315, -1.892090, -4.821777, -2.441406
1385269, 0.087891, 0.666138, -0.759033, -3.112794, -2.197266, -2.563477
1385289, 0.084351, 0.668213, -0.747192, -3.417970, 1.586915, -1.281738
1385309, 0.082031, 0.684448, -0.744507, -3.967286, 4.089355, 0.793457
1385329, 0.081177, 0.713989, -0.712891, -3.234864, 4.272461, 3.723145
1385349, 0.089233, 0.732178, -0.695435, -1.342773, 2.319336, 5.554201
1385369, 0.113037, 0.741211, -0.684814, 2.441406, -0.915528, 5.249023
1385389, 0.115112, 0.729248, -0.706665, 6.530764, -2.868653, 3.845216
1385409, 0.121216, 0.705200, -0.734619, 8.300781, -2.868653, 2.685547
1385429, 0.130371, 0.677856, -0.751221, 8.911133, -3.845216, 1.403809
1385449, 0.123413, 0.665527, -0.772095, 8.605957, -4.150391, 0.305176
1385469, 0.120117, 0.649170, -0.776367, 7.385256, -4.455566, 0.000000
1385489, 0.113647, 0.647827, -0.774048, 6.225588, -3.601075, -0.671387
1385509, 0.096558, 0.651611, -0.765625, 4.455566, -0.549316, -1.159668
1385529, 0.110596, 0.667969, -0.759033, 4.577637, -1.831055, -0.793457
1385549, 0.100952, 0.667358, -0.771973, 4.760742, -3.601075, -2.807618
1385569, 0.091431, 0.649902, -0.775269, 3.112794, -2.624512, -3.356935
1385589, 0.094360, 0.638794, -0.776855, 1.342773, -1.586915, -2.929688
1385609, 0.152832, 0.543945, -0.679321, 0.305176, -4.516602, -4.211426
1385629, -0.038818, 0.846069, -1.049438, -5.493164, 10.620117, 1.403809
1385649, 0.198120, 0.577759, -0.513672, -3.479005, -0.366211, 0.793457
1385669, 0.109741, 0.617188, -0.790527, 7.324221, -5.920412, -0.122070
1385689, 0.100098, 0.722656, -0.866089, -10.131836, 0.366211, 1.281738
1385709, 0.063965, 0.708252, -0.677856, 1.159668, -13.000492, -1.281738
1385729, 0.061646, 0.698242, -0.762695, -0.549316, -9.643555, 1.403809
1385749, 0.061157, 0.694702, -0.722412, -0.488281, -4.638672, 2.319336
1385769, 0.053833, 0.685547, -0.734375, 3.051759, -3.417970, 5.920412
1385789, 0.069702, 0.677612, -0.768799, 2.868653, -1.403809, 7.873537
1385809, 0.083740, 0.661987, -0.762207, 2.563477, 1.281738, 8.056641
1385829, 0.104614, 0.653320, -0.771606, 1.403809, 1.708985, 9.033203
1385849, 0.122559, 0.651855, -0.773560, 0.366211, -3.173829, 9.338379
1385869, 0.118164, 0.657837, -0.768555, -0.976563, -4.638672, 7.812502
1385889, 0.108643, 0.667969, -0.771729, 0.122070, -2.258301, 5.737307
1385909, 0.109863, 0.657227, -0.778809, 0.061035, -2.075195, 4.760742
1385929, 0.111572, 0.643555, -0.770142, -1.220703, -1.892090, 4.150391
1385949, 0.109253, 0.648804, -0.765503, -2.441406, 0.244141, 1.708985
1385969, 0.098755, 0.674683, -0.766602, -3.723145, 2.685547, 0.915528
1385989, 0.112183, 0.679077, -0.744629, -2.990724, 3.234864, -0.427246
1386029, 0.117188, 0.692993, -0.730835, -2.380371, 4.455566, -3.051759
1386049, 0.110962, 0.694092, -0.727905, -0.793457, 2.136230, -3.784181
1386069, 0.090210, 0.696655, -0.745239, -0.427246, 2.441406, -3.479005
1386089, 0.092285, 0.675171, -0.746338, 0.732422, 6.042482, -2.502441
1386109, 0.102661, 0.674072, -0.758301, 0.671387, 6.774904, -0.976563
1386129, 0.113403, 0.660278, -0.763062, 0.671387, 5.859377, 0.488281
1386149, 0.129150, 0.656616, -0.768066, -0.305176, 4.272461, 1.037598
1386169, 0.127808, 0.661499, -0.770386, -1.342773, 1.831055, 1.098633
1386189, 0.125732, 0.662354, -0.763428, -2.502441, 0.671387, 1.525879
1386209, 0.131836, 0.668457, -0.752319, -2.807618, 0.976563, 0.854492
1386229, 0.125244, 0.678101, -0.745728, -2.807618, 1.708985, 0.549316
1386249, 0.128052, 0.686035, -0.739258, -2.380371, 0.671387, 1.098633
1386269, 0.135010, 0.694214, -0.732666, -1.037598, -2.075195, 1.037598
1386289, 0.128540, 0.694702, -0.733765, -0.244141, -2.624512, 0.000000
1386309, 0.117554, 0.689819, -0.733398, 0.610352, -2.258301, -0.427246
1386329, 0.114868, 0.679932, -0.738037, 1.281738, -1.342773, 0.183106
1386349, 0.120117, 0.670898, -0.755005, 1.037598, 0.061035, 0.366211
1386369, 0.128296, 0.666138, -0.762329, 0.305176, -1.098633, 0.488281
1386389, 0.126587, 0.662231, -0.761963, -1.037598, -3.295899, -0.366211
1386409, 0.113647, 0.674194, -0.758179, -2.014160, -3.784181, -0.610352
1386429, 0.103149, 0.687744, -0.747192, -1.953125, -1.831055, -0.183106
1386449, 0.112549, 0.673584, -0.729858, -0.793457, -0.976563, 0.732422
1386469, 0.119019, 0.677124, -0.754150, -1.708985, 0.061035, 1.892090
1386489, 0.130737, 0.683472, -0.740967, -2.136230, -0.793457, 0.488281
1386509, 0.120483, 0.694946, -0.737061, -1.708985, -2.807618, -0.061035
1386569, 0.102417, 0.684937, -0.750610, -0.305176, 0.549316, 0.183106
1386589, 0.112671, 0.686523, -0.736694, -0.305176, 2.746582, 0.732422
1386609, 0.117310, 0.673462, -0.736816, 0.427246, 1.525879, 0.854492
1386629, 0.114380, 0.692749, -0.753418, -0.671387, 0.976563, 0.976563
1386649, 0.112549, 0.700195, -0.731812, 0.671387, 0.244141, 1.281738
1386669, 0.116943, 0.685913, -0.733765, 1.525879, 0.549316, 1.708985
1386689, 0.129883, 0.686768, -0.740479, 1.586915, 0.427246, 1.464844
1386709, 0.123291, 0.693604, -0.737183, 1.892090, 0.610352, 0.976563
1386729, 0.127686, 0.680786, -0.734375, 2.807618, 0.061035, 0.793457
1386749, 0.123901, 0.673218, -0.754517, 1.953125, 0.671387, 0.122070
1386769, 0.128418, 0.677734, -0.749146, 0.976563, 0.732422, 0.000000
1386789, 0.127197, 0.672607, -0.741821, 1.159668, 0.976563, -0.244141
1386809, 0.127075, 0.670532, -0.749878, 1.098633, 1.770020, -0.366211
1386829, 0.127930, 0.676636, -0.750366, 0.488281, 2.014160, -0.732422
1386849, 0.126221, 0.680176, -0.744385, 0.488281, 1.220703, -1.342773
1386869, 0.127808, 0.683838, -0.742065, 0.488281, 0.122070, -0.976563
1386909, 0.131470, 0.683838, -0.748535, 0.793457, -0.915528, -2.258301
1386929, 0.124023, 0.680908, -0.744995, 0.854492, -0.366211, -2.868653
1386949, 0.115356, 0.683838, -0.740479, 1.098633, 1.098633, -2.563477
1386969, 0.110474, 0.686401, -0.741089, 1.831055, 2.746582, -1.525879
1387009, 0.128784, 0.670410, -0.743774, 2.014160, 3.173829, 0.122070
1387029, 0.123413, 0.672363, -0.757202, 0.244141, 0.854492, -0.366211
1387069, 0.122803, 0.688843, -0.732544, 0.793457, 1.708985, 0.671387
1387089, 0.130981, 0.677979, -0.744507, 1.770020, 3.356935, 1.281738
1387109, 0.147583, 0.672729, -0.749268, 1.525879, 1.831055, 1.342773
1387129, 0.151733, 0.669067, -0.750732, 0.915528, -0.366211, 0.061035
1387149, 0.140747, 0.672729, -0.752441, 0.183106, -0.488281, -1.892090
1387169, 0.122925, 0.679932, -0.745972, -0.183106, 0.122070, -2.258301
1387189, 0.123901, 0.677246, -0.738525, 0.244141, 0.915528, -1.037598
1387209, 0.134399, 0.677612, -0.743652, 0.549316, 0.915528, -0.915528
1387229, 0.130371, 0.676270, -0.750366, -0.183106, 0.488281, -1.647950
1387249, 0.129272, 0.678711, -0.745972, -0.549316, -0.183106, -1.220703
1387269, 0.132446, 0.680786, -0.738525, -0.183106, -0.061035, -0.427246
1387289, 0.133667, 0.677368, -0.739624, 0.244141, 0.122070, 0.183106
1387309, 0.137451, 0.683838, -0.745483, 0.122070, 0.183106, 0.366211
1387329, 0.142700, 0.681763, -0.741821, 0.610352, -0.671387, 0.549316
1387349, 0.142212, 0.679565, -0.748413, 0.976563, -1.586915, -0.366211
1387369, 0.132813, 0.677979, -0.748169, 0.976563, -3.540040, -0.915528
1387389, 0.119385, 0.678223, -0.746460, 0.549316, -5.126953, -0.732422
1387409, 0.116211, 0.676880, -0.742188, 0.427246, -4.089355, -0.610352
1387429, 0.106201, 0.672485, -0.748413, 0.000000, -1.098633, -0.671387
1387449, 0.106812, 0.668701, -0.751831, -0.610352, 1.770020, 0.305176
1387469, 0.113281, 0.673706, -0.750732, -1.342773, 4.089355, 1.220703
1387489, 0.124146, 0.674316, -0.741211, -1.403809, 5.615236, 2.075195
1387509, 0.143799, 0.676392, -0.740112, -1.403809, 5.493164, 3.112794
1387529, 0.164429, 0.688110, -0.735229, -1.220703, 3.173829, 3.051759
1387549, 0.169312, 0.698730, -0.733276, -0.122070, 0.305176, 1.892090
1387569, 0.171875, 0.692139, -0.736450, 1.098633, -2.380371, 0.183106
1387589, 0.163452, 0.682495, -0.739746, 1.831055, -6.774904, -1.770020
1387609, 0.115479, 0.681396, -0.744751, 1.037598, -7.324221, -2.807618
1387629, 0.094849, 0.682617, -0.736694, 1.342773, -3.906251, -2.136230
1387649, 0.088989, 0.677490, -0.742554, 1.647950, 0.793457, -0.671387
1387669, 0.107422, 0.668945, -0.748535, 1.159668, 3.845216, 0.915528
1387689, 0.123413, 0.671021, -0.754883, 0.305176, 4.821777, 2.258301
1387709, 0.146973, 0.675659, -0.746338, 0.061035, 3.662110, 3.356935
1387729, 0.159668, 0.680054, -0.744629, 0.549316, 2.014160, 3.417970
1387749, 0.164551, 0.681274, -0.739624, 0.976563, 0.122070, 2.807618
1387769, 0.166260, 0.682251, -0.740356, 1.525879, -2.075195, 1.220703
1387789, 0.142456, 0.679932, -0.747681, 1.281738, -3.784181, -0.976563
1387809, 0.126221, 0.681274, -0.738281, 1.403809, -4.333496, -1.525879
1387829, 0.112305, 0.671753, -0.742432, 1.403809, -2.624512, -2.136230
1387849, 0.110229, 0.666382, -0.748047, 0.549316, -0.122070, -2.014160
1387869, 0.108887, 0.670044, -0.753296, -0.305176, 2.685547, -1.403809
1387889, 0.119263, 0.666016, -0.752808, -0.854492, 4.455566, -0.610352
1387909, 0.137207, 0.674072, -0.754517, -1.159668, 4.028320, 0.732422
1387929, 0.153320, 0.681885, -0.739014, -0.976563, 1.892090, 2.380371
1387949, 0.159058, 0.694580, -0.744141, 0.183106, 1.220703, 3.417970
1387969, 0.177856, 0.685181, -0.729492, 1.403809, -0.549316, 3.173829
1387989, 0.161987, 0.686279, -0.740845, 2.685547, -4.455566, 0.915528
1388009, 0.150146, 0.678345, -0.738159, 2.990724, -5.493164, -1.281738
1388029, 0.131226, 0.672241, -0.749756, 2.624512, -6.225588, -3.356935
1388049, 0.102661, 0.666138, -0.753296, 1.403809, -5.554201, -4.150391
1388069, 0.084717, 0.668579, -0.752563, 0.366211, -2.624512, -2.319336
1388089, 0.088745, 0.664551, -0.747192, 0.000000, 2.014160, -0.183106
1388109, 0.115356, 0.659912, -0.751099, -0.610352, 6.042482, 1.464844
1388129, 0.140381, 0.673584, -0.752075, -1.525879, 7.141115, 3.234864
1388149, 0.163940, 0.688599, -0.740112, -1.037598, 4.699707, 4.516602
1388169, 0.190674, 0.684937, -0.735474, 0.793457, 0.793457, 2.990724
1388189, 0.192017, 0.685547, -0.738892, 2.075195, -4.638672, 0.610352
1388209, 0.158447, 0.681030, -0.749634, 1.831055, -7.934572, -1.525879
1388229, 0.134277, 0.682495, -0.741455, 1.953125, -7.629396, -2.685547
1388249, 0.111938, 0.672729, -0.744995, 2.624512, -6.042482, -3.356935
1388269, 0.085327, 0.660645, -0.760010, 1.525879, -2.929688, -2.563477
1388289, 0.084229, 0.661621, -0.756958, -0.183106, 0.915528, -0.549316
1388309, 0.094360, 0.662842, -0.751953, -1.281738, 4.577637, 1.464844
1388329, 0.119385, 0.664917, -0.749878, -1.647950, 6.042482, 3.234864
1388349, 0.146973, 0.666870, -0.753540, -2.380371, 6.713869, 4.882813
1388369, 0.201050, 0.681641, -0.735229, -1.403809, 3.234864, 5.310059
1388389, 0.207764, 0.689209, -0.737061, -0.061035, -1.525879, 2.746582
1388409, 0.185425, 0.697876, -0.737915, 0.671387, -6.103518, -0.061035
1388429, 0.152832, 0.692993, -0.731323, 1.892090, -8.239746, -2.563477
1388449, 0.119385, 0.679688, -0.736328, 2.807618, -7.324221, -3.417970
1388469, 0.093994, 0.664429, -0.751831, 2.502441, -3.662110, -3.234864
1388489, 0.078857, 0.657593, -0.763794, 0.610352, 2.197266, -1.525879
1388509, 0.094238, 0.653687, -0.756958, -0.793457, 6.225588, 0.793457
1388529, 0.113647, 0.663330, -0.764648, -2.136230, 7.690432, 2.624512
1388549, 0.149902, 0.670288, -0.746216, -3.295899, 7.507326, 5.249023
1388569, 0.175659, 0.677124, -0.736938, -2.868653, 6.591799, 6.774904
1388589, 0.198853, 0.686646, -0.733398, -1.708985, 5.615236, 6.591799
1388609, 0.220215, 0.686523, -0.724976, 0.061035, 2.685547, 4.394531
1388629, 0.216919, 0.693604, -0.737915, 1.586915, -2.807618, 1.159668
1388649, 0.194092, 0.685547, -0.736328, 1.953125, -7.324221, -2.136230
1388669, 0.165527, 0.677856, -0.734253, 2.441406, -10.131836, -4.394531
1388689, 0.123535, 0.677246, -0.742920, 2.258301, -9.216309, -5.493164
1388709, 0.099365, 0.669678, -0.739380, 1.586915, -4.455566, -4.211426
1388729, 0.104248, 0.667236, -0.743408, 1.159668, 2.319336, -1.037598
1388749, 0.132324, 0.672119, -0.750366, 0.183106, 4.089355, 1.159668
1388769, 0.155151, 0.674194, -0.746582, 0.183106, 3.479005, 2.624512
1388789, 0.180054, 0.670288, -0.749756, 0.793457, 1.281738, 2.563477
1388809, 0.184692, 0.664795, -0.761108, 0.244141, -1.525879, 0.976563
1388829, 0.171387, 0.671021, -0.753052, -0.976563, -5.187988, -0.244141
1388849, 0.151489, 0.682739, -0.737061, -0.915528, -6.591799, -0.976563
1388869, 0.140747, 0.691895, -0.728638, 0.732422, -7.202150, -1.159668
1388889, 0.129883, 0.682617, -0.737671, 1.464844, -5.920412, -1.586915
1388909, 0.126465, 0.673096, -0.739136, 1.281738, -3.295899, -2.197266
1388929, 0.125610, 0.669922, -0.748657, 0.793457, 1.281738, -1.220703
1388949, 0.139282, 0.665161, -0.752686, 0.305176, 2.197266, 0.427246
1388969, 0.158813, 0.669067, -0.756226, -0.183106, -0.671387, 1.464844
1388989, 0.156860, 0.681274, -0.756592, -0.305176, -4.638672, 1.647950
1389009, 0.145508, 0.675903, -0.743652, 0.122070, -6.225588, 2.380371
1389029, 0.150635, 0.666138, -0.743164, 0.244141, -3.723145, 1.892090
1389049, 0.145264, 0.669434, -0.749390, -0.305176, -1.403809, 1.037598
1389069, 0.137573, 0.669678, -0.740967, -0.671387, -0.915528, 0.366211
1389089, 0.132324, 0.672974, -0.748047, -1.037598, -0.305176, -0.732422
1389109, 0.131104, 0.681396, -0.744751, -1.281738, 1.708985, -1.525879
1389129, 0.145386, 0.676392, -0.741089, -0.915528, 2.807618, -1.281738
1389149, 0.155518, 0.679810, -0.744995, -0.793457, 1.525879, -1.098633
1389169, 0.153687, 0.679932, -0.745605, -0.732422, -0.610352, -0.854492
1389189, 0.150513, 0.682983, -0.747437, -0.244141, -3.051759, 0.122070
1389209, 0.154053, 0.677612, -0.739624, 0.061035, -4.882813, 1.098633
1389229, 0.146729, 0.677734, -0.743042, 0.488281, -5.798342, 0.976563
1389249, 0.135254, 0.683838, -0.744141, 0.000000, -4.577637, 0.549316
1389269, 0.123169, 0.684570, -0.733276, 0.610352, -3.295899, 0.061035
1389289, 0.116699, 0.681519, -0.737427, 0.854492, -0.915528, 0.488281
1389309, 0.134155, 0.676392, -0.735107, 0.610352, 1.159668, 0.305176
1389329, 0.136475, 0.680420, -0.742554, 0.732422, 1.464844, 0.000000
1389349, 0.138062, 0.678101, -0.750366, 0.305176, 1.464844, -0.183106
1389369, 0.147095, 0.672241, -0.747437, -0.061035, 1.770020, -0.122070
1389389, 0.147705, 0.675293, -0.749146, 0.183106, -0.366211, 0.610352
1389409, 0.147217, 0.673340, -0.751099, 0.000000, -0.671387, 1.708985
1389429, 0.153687, 0.674561, -0.746826, 0.305176, -0.061035, 1.586915
1389449, 0.150391, 0.672363, -0.748413, 0.366211, 0.488281, 1.464844
1389469, 0.155640, 0.674438, -0.743164, 0.183106, -0.732422, 0.671387
1389489, 0.146484, 0.677368, -0.733643, -0.183106, -0.915528, -1.403809
1389509, 0.136597, 0.683960, -0.737061, 0.305176, -1.586915, -2.014160
1389529, 0.133911, 0.690186, -0.733643, 0.244141, -1.159668, -1.647950
1389549, 0.132935, 0.687500, -0.731201, 1.281738, -0.305176, -0.976563
1389569, 0.133301, 0.678467, -0.739624, 1.708985, 1.464844, -0.671387
1389589, 0.137329, 0.678589, -0.747192, 1.525879, 2.380371, -0.244141
1389609, 0.146851, 0.670166, -0.746948, 1.281738, 1.953125, 0.610352
1389629, 0.156372, 0.670410, -0.750488, 0.915528, -0.366211, 1.464844
1389649, 0.153076, 0.679810, -0.749268, 0.854492, -1.770020, 1.586915
1389669, 0.147339, 0.680908, -0.741333, 1.525879, -2.258301, 1.525879
1389689, 0.145386, 0.671997, -0.746094, 1.586915, -1.159668, 0.732422
1389709, 0.142456, 0.673218, -0.742065, 1.159668, 0.854492, -0.122070
1389729, 0.147949, 0.671753, -0.741333, 1.403809, 1.647950, -0.854492
1389749, 0.148193, 0.675537, -0.746704, 1.159668, 1.892090, -2.014160
1389769, 0.140625, 0.677856, -0.748779, 0.854492, 2.136230, -2.502441
1389789, 0.143188, 0.670166, -0.743530, 0.793457, 2.014160, -1.831055
1389809, 0.144775, 0.663696, -0.750122, 0.610352, 2.502441, -1.220703
1389829, 0.143433, 0.664429, -0.754272, -0.183106, 4.211426, -0.122070
1389849, 0.159058, 0.664673, -0.748535, -0.610352, 3.723145, 0.793457
1389869, 0.157715, 0.672241, -0.748779, -1.159668, 0.854492, 0.488281
1389889, 0.155029, 0.680542, -0.738892, -1.098633, -0.244141, -0.549316
1389909, 0.149658, 0.683472, -0.734741, -0.732422, -0.610352, -0.488281
1389929, 0.146973, 0.688110, -0.732910, 0.000000, 0.305176, -0.610352
1389949, 0.145020, 0.683838, -0.733643, 0.671387, 2.624512, -0.488281
1389969, 0.158936, 0.679321, -0.735107, 1.342773, 1.892090, -0.610352
1389989, 0.153076, 0.674561, -0.749146, 1.159668, 0.976563, -1.098633
1390009, 0.153931, 0.672852, -0.747681, 0.427246, 0.732422, -0.915528
1390029, 0.156128, 0.665649, -0.745605, 0.549316, 0.122070, -0.549316
1390049, 0.153442, 0.665527, -0.754028, -0.122070, 0.000000, 0.610352
1390069, 0.162598, 0.672607, -0.748535, -0.610352, -1.037598, 1.037598
1390089, 0.163452, 0.672607, -0.746460, -0.976563, -2.502441, 0.671387
1390109, 0.158569, 0.676514, -0.741211, -1.220703, -2.746582, -0.610352
1390129, 0.149536, 0.679443, -0.732910, -1.098633, -1.831055, -0.976563
1390149, 0.151245, 0.686035, -0.730225, 0.061035, -1.464844, -0.976563
1390169, 0.146606, 0.680420, -0.740234, 0.244141, -0.488281, -1.220703
1390189, 0.154419, 0.674438, -0.738037, -0.305176, 0.183106, -1.220703
1390209, 0.150146, 0.681396, -0.738892, 0.061035, -0.793457, -1.220703
1390229, 0.146973, 0.679565, -0.744995, 0.061035, -1.037598, -0.427246
1390249, 0.144409, 0.673462, -0.741699, -0.244141, -0.915528, 0.061035
1390269, 0.139160, 0.672729, -0.746094, -0.549316, 0.671387, 1.098633
1390289, 0.150146, 0.672485, -0.743408, -0.732422, 2.197266, 2.075195
1390309, 0.158936, 0.674316, -0.741821, -0.610352, 0.976563, 2.319336
1390329, 0.155884, 0.683105, -0.745605, -1.281738, -0.305176, 1.708985
1390349, 0.158081, 0.687012, -0.733643, -1.403809, -1.342773, 1.098633
1390369, 0.157349, 0.687500, -0.726074, -0.549316, -0.671387, 0.671387
1390389, 0.161865, 0.683594, -0.729858, 0.183106, -0.671387, 0.305176
1390409, 0.166748, 0.677856, -0.735718, 0.244141, -0.122070, 0.122070
1390429, 0.170166, 0.679565, -0.739868, 0.305176, -0.854492, -0.732422
1390449, 0.151245, 0.675659, -0.746094, 0.122070, -1.770020, -1.403809
1390469, 0.144409, 0.674927, -0.743286, -0.244141, -1.220703, -0.732422
1390489, 0.144653, 0.676392, -0.734619, -0.305176, 0.122070, 0.244141
1390509, 0.150269, 0.681152, -0.736572, -0.122070, 1.586915, 0.976563
1390529, 0.154663, 0.684814, -0.738403, -0.183106, 1.953125, 0.793457
1390549, 0.154175, 0.687378, -0.735596, -0.122070, 1.037598, 1.037598
1390569, 0.159668, 0.684692, -0.729492, 0.244141, 0.122070, 1.281738
1390589, 0.166504, 0.682007, -0.728027, 0.793457, -1.586915, 1.220703
1390609, 0.164429, 0.687744, -0.735229, 0.610352, -1.403809, 0.854492
1390629, 0.165894, 0.690186, -0.728149, 1.953125, -1.708985, 0.488281
1390649, 0.165649, 0.683960, -0.737793, 2.746582, -2.685547, 0.488281
1390669, 0.160767, 0.677246, -0.744019, 2.441406, -2.868653, 0.366211
1390689, 0.157837, 0.668579, -0.741821, 2.136230, -2.258301, 0.000000
1390709, 0.151611, 0.667236, -0.747559, 1.586915, -2.258301, -0.122070
1390729, 0.151489, 0.663574, -0.749268, 0.366211, -1.708985, -0.122070
1390749, 0.151489, 0.669556, -0.748047, -0.427246, -1.831055, -0.671387
1390769, 0.148315, 0.677368, -0.740967, -0.732422, -1.586915, -0.549316
1390789, 0.149658, 0.678711, -0.735840, -0.427246, -0.244141, -0.793457
1390809, 0.151245, 0.680786, -0.736206, -0.244141, 1.892090, -0.671387
1390829, 0.160156, 0.683960, -0.735352, 0.549316, 2.380371, -0.183106
1390849, 0.162109, 0.680298, -0.740234, 0.610352, 0.488281, -0.366211
1390869, 0.158203, 0.677490, -0.742798, 0.122070, -0.610352, -0.793457
1390889, 0.152710, 0.677612, -0.737793, 0.000000, -0.976563, -0.610352
1390909, 0.148682, 0.678467, -0.738281, 0.305176, -0.488281, 0.061035
1390929, 0.147705, 0.681763, -0.740723, 0.427246, 0.427246, 0.854492
1390949, 0.156616, 0.679321, -0.734985, 0.427246, 1.037598, 1.464844
1390969, 0.163086, 0.678101, -0.736328, 0.671387, 1.403809, 1.037598
1390989, 0.170044, 0.673462, -0.739258, 0.549316, 0.610352, 0.793457
1391009, 0.166138, 0.679077, -0.744263, 0.427246, -2.075195, -0.183106
1391029, 0.157715, 0.677856, -0.739136, 0.183106, -1.831055, -0.488281
1391049, 0.155640, 0.680420, -0.735962, 0.427246, -0.732422, -0.122070
1391069, 0.154419, 0.677612, -0.738892, 0.854492, 0.671387, 0.427246
1391089, 0.163208, 0.671753, -0.741577, 0.854492, 1.525879, 0.976563
1391109, 0.171631, 0.673950, -0.744629, 0.488281, 1.159668, 0.915528
1391129, 0.178833, 0.681030, -0.739380, 0.549316, -1.525879, 0.732422
1391149, 0.166992, 0.683716, -0.739868, 0.915528, -3.845216, -0.305176
1391169, 0.160767, 0.675537, -0.739014, 0.732422, -3.967286, -0.732422
1391189, 0.155518, 0.678223, -0.734131, 0.549316, -2.502441, -0.732422
1391209, 0.146606, 0.680176, -0.733887, 1.342773, -0.915528, -0.488281
1391229, 0.152222, 0.672485, -0.737427, 1.159668, 0.244141, -0.610352
1391249, 0.152588, 0.675903, -0.745117, 0.671387, 0.732422, -0.976563
1391269, 0.151245, 0.673706, -0.745239, 0.488281, 0.488281, -0.671387
1391289, 0.157837, 0.672729, -0.744629, 0.244141, 0.488281, 0.305176
1391309, 0.168823, 0.676758, -0.739380, 0.427246, 0.976563, 0.122070
1391329, 0.162964, 0.677856, -0.743530, 0.793457, 0.671387, -0.427246
1391349, 0.167236, 0.671753, -0.747314, 0.427246, -2.319336, -0.244141
1391369, 0.168823, 0.672485, -0.740356, -0.549316, -3.417970, -1.159668
1391389, 0.148438, 0.680664, -0.736694, 0.061035, -2.502441, -1.464844
1391409, 0.147949, 0.676880, -0.739258, 0.366211, -1.831055, -0.549316
1391429, 0.149536, 0.674927, -0.739868, 0.305176, -0.793457, -0.244141
1391449, 0.146851, 0.674072, -0.740356, 0.061035, 1.159668, -0.305176
1391469, 0.155640, 0.677734, -0.738403, 0.000000, 2.685547, 0.061035
1391489, 0.163818, 0.674561, -0.739258, 0.122070, 2.746582, -0.183106
1391509, 0.163452, 0.676636, -0.744873, -0.305176, 2.502441, -0.366211
1391529, 0.171997, 0.679443, -0.738525, -0.061035, 0.549316, -0.244141
1391549, 0.166870, 0.677612, -0.741455, 0.000000, -1.220703, -0.915528
1391569, 0.156006, 0.681396, -0.740479, -0.244141, -1.464844, -1.098633
1391589, 0.153442, 0.685303, -0.729004, 0.976563, -0.671387, -0.244141
1391609, 0.164795, 0.678833, -0.734863, 1.464844, -1.220703, 0.305176
1391629, 0.166748, 0.678467, -0.743408, 1.098633, -1.464844, -0.488281
1391649, 0.160400, 0.674683, -0.743042, 0.793457, -1.953125, -0.976563
1391669, 0.156372, 0.671631, -0.742676, 0.610352, -2.197266, -0.976563
1391689, 0.151733, 0.673462, -0.741333, 0.305176, -2.075195, -1.037598
1391709, 0.139038, 0.679932, -0.740967, 0.122070, -0.305176, -0.549316
1391729, 0.140381, 0.678467, -0.736816, 0.305176, 1.586915, 0.671387
1391749, 0.157837, 0.674194, -0.739136, 0.305176, 3.356935, 1.098633
1391769, 0.168335, 0.677612, -0.742310, 0.366211, 2.075195, 0.610352
1391789, 0.176880, 0.676880, -0.739136, 0.366211, -1.037598, 0.061035
1391809, 0.170288, 0.681763, -0.739380, 0.183106, -2.746582, -1.220703
1391829, 0.150635, 0.684570, -0.734253, 0.427246, -2.502441, -1.525879
1391849, 0.144531, 0.688232, -0.733521, 1.098633, -1.159668, -0.183106
1391869, 0.149658, 0.679810, -0.730957, 1.892090, -0.061035, 0.549316
1391889, 0.158081, 0.672974, -0.741821, 1.953125, 0.122070, 0.793457
1391909, 0.158569, 0.672852, -0.747437, 1.098633, -0.183106, 0.732422
1391929, 0.164185, 0.668335, -0.743652, 0.671387, -0.183106, 0.610352
1391949, 0.163574, 0.674072, -0.746216, 0.427246, 0.366211, 0.244141
1391969, 0.163330, 0.671143, -0.740845, 0.488281, 1.220703, 0.366211
1391989, 0.173950, 0.669678, -0.742188, 0.427246, 0.122070, -0.061035
1392009, 0.166626, 0.676147, -0.746704, -0.061035, -1.342773, -0.854492
1392029, 0.155884, 0.680664, -0.739502, -0.244141, -1.892090, -0.244141
1392049, 0.162720, 0.677979, -0.730103, 0.427246, -2.014160, 0.305176
1392069, 0.162598, 0.678101, -0.734863, 0.732422, -1.770020, 0.122070
1392089, 0.155273, 0.682739, -0.741089, 0.793457, -1.464844, 0.000000
1392109, 0.155518, 0.678101, -0.740479, 0.915528, -1.159668, 0.427246
1392129, 0.160767, 0.670898, -0.739380, 0.976563, -1.220703, 0.671387
1392149, 0.158569, 0.669922, -0.746826, 0.244141, 0.061035, 0.244141
1392169, 0.161987, 0.671021, -0.742432, 0.183106, 0.488281, 0.366211
1392189, 0.164307, 0.677124, -0.743896, 0.305176, -0.427246, 0.183106
1392209, 0.167847, 0.675781, -0.738892, 0.366211, -2.380371, 0.305176
1392229, 0.161987, 0.679199, -0.740601, 0.427246, -2.929688, -0.244141
1392249, 0.157593, 0.678833, -0.739380, 0.549316, -2.319336, -0.366211
1392269, 0.156250, 0.671875, -0.739746, 0.549316, -0.915528, -0.488281
1392289, 0.157593, 0.672607, -0.741821, 0.488281, 0.366211, -0.305176
1392309, 0.153076, 0.673584, -0.741699, 0.427246, 1.403809, -0.305176
1392329, 0.153320, 0.671753, -0.742554, 0.427246, 1.403809, 0.061035
1392349, 0.164429, 0.673096, -0.743286, -0.183106, 0.000000, 0.244141
1392369, 0.164795, 0.676636, -0.741333, -0.488281, -0.976563, 0.061035
1392389, 0.162109, 0.680908, -0.738647, -0.427246, -1.220703, -0.183106
1392409, 0.160034, 0.681396, -0.733032, 0.122070, -0.915528, -0.244141
1392429, 0.163086, 0.676392, -0.737427, 0.793457, -1.037598, 0.061035
1392449, 0.162354, 0.671997, -0.744385, 0.610352, -1.037598, -0.183106
1392469, 0.160889, 0.672852, -0.744263, 0.122070, -0.671387, -0.305176
1392489, 0.156860, 0.674805, -0.742188, 0.000000, -0.122070, -0.671387
1392509, 0.152710, 0.676758, -0.740967, 0.183106, 0.671387, -0.427246
1392529, 0.160767, 0.675049, -0.739380, 0.305176, 1.403809, 0.366211
1392549, 0.168213, 0.675903, -0.738525, 0.427246, 0.549316, 0.427246
1392569, 0.169312, 0.677490, -0.742676, 0.488281, -0.671387, -0.122070
1392589, 0.168335, 0.676514, -0.745483, 0.000000, -1.647950, -0.427246
1392609, 0.163940, 0.676270, -0.738281, -0.061035, -1.770020, -0.854492
1392629, 0.155640, 0.680542, -0.735474, 0.366211, -1.281738, -0.671387
1392649, 0.153564, 0.677856, -0.739258, 0.793457, -0.305176, -0.061035
1392669, 0.156616, 0.673096, -0.738281, 0.671387, -0.183106, 0.488281
1392689, 0.159180, 0.677368, -0.743164, 0.427246, 0.488281, 0.549316
1392709, 0.157349, 0.677490, -0.738159, 0.427246, 0.976563, 0.366211
1392729, 0.160034, 0.676758, -0.738037, 0.793457, 1.647950, 0.793457
1392749, 0.167236, 0.669556, -0.741577, 0.671387, 2.197266, 0.671387
1392769, 0.175293, 0.670410, -0.745239, 0.183106, 1.525879, 0.305176
1392789, 0.174561, 0.672974, -0.742065, 0.061035, -0.366211, -0.244141
1392809, 0.164917, 0.680054, -0.743896, 0.122070, -1.892090, -0.488281
1392829, 0.159302, 0.677246, -0.735596, 0.061035, -1.220703, -0.427246
1392849, 0.158569, 0.676270, -0.734741, 0.549316, 0.732422, 0.000000
1392869, 0.167969, 0.675781, -0.736450, 0.549316, 1.098633, 0.488281
1392889, 0.168579, 0.678345, -0.740601, 0.732422, -0.183106, 0.366211
1392909, 0.171265, 0.672607, -0.738647, 0.305176, -0.366211, -0.244141
1392929, 0.172974, 0.672485, -0.738037, 0.610352, -0.671387, -0.305176
1392949, 0.167114, 0.669312, -0.746460, 0.488281, -0.488281, -0.305176
1392969, 0.166382, 0.668457, -0.746216, -0.122070, -0.305176, -0.305176
1392989, 0.167358, 0.673950, -0.744263, -0.549316, -0.366211, -0.488281
1393009, 0.164795, 0.676025, -0.738159, -0.610352, -0.122070, -0.610352
1393029, 0.163208, 0.679443, -0.736206, -0.488281, 0.671387, -0.305176
1393049, 0.169678, 0.682129, -0.731934, 0.061035, 0.305176, 0.061035
1393069, 0.171143, 0.681030, -0.736450, 0.732422, -0.854492, -0.366211
1393089, 0.165039, 0.680298, -0.741089, 0.549316, -1.342773, -0.549316
1393109, 0.164795, 0.673706, -0.740723, 0.549316, -0.793457, -0.244141
1393129, 0.163574, 0.674927, -0.740234, 0.305176, -0.549316, -0.122070
1393149, 0.159180, 0.679810, -0.740112, 0.183106, -0.488281, 0.244141
1393169, 0.160278, 0.678345, -0.735107, 0.305176, -0.793457, 0.549316
1393189, 0.166260, 0.675537, -0.734985, 0.488281, 0.305176, 0.610352
1393209, 0.168579, 0.675537, -0.738647, 0.488281, 0.671387, 0.488281
1393229, 0.171021, 0.676147, -0.741821, 0.244141, 0.427246, 0.732422
1393249, 0.178467, 0.672852, -0.739380, 0.366211, -0.122070, 0.244141
1393269, 0.171875, 0.673462, -0.744019, 0.183106, -0.427246, -0.366211
1393289, 0.171387, 0.674805, -0.733887, -0.122070, -0.427246, -0.305176
1393309, 0.168823, 0.679077, -0.734985, 0.488281, -1.403809, -0.549316
1393329, 0.164063, 0.676392, -0.743286, 0.244141, -1.342773, -0.732422
1393349, 0.167236, 0.673462, -0.739990, -0.183106, -1.159668, -0.793457
1393369, 0.164551, 0.679565, -0.735718, -0.183106, -0.305176, -0.366211
1393389, 0.166626, 0.680298, -0.732788, 0.244141, 0.427246, 0.244141
1393409, 0.173706, 0.678101, -0.735352, 0.732422, -0.122070, 0.244141
1393429, 0.171387, 0.679077, -0.740234, 0.549316, -1.892090, -0.183106
1393449, 0.164795, 0.680786, -0.737183, 0.549316, -2.807618, -0.305176
1393469, 0.159790, 0.679443, -0.735352, 0.915528, -1.586915, 0.061035
1393489, 0.160522, 0.673706, -0.739624, 1.098633, 0.549316, 1.281738
1393509, 0.172485, 0.673950, -0.740356, 0.976563, 0.976563, 1.403809
1393529, 0.175171, 0.673096, -0.744141, 0.854492, -0.244141, 0.305176
1393549, 0.167969, 0.678101, -0.746704, 0.366211, -1.220703, -0.427246
1393569, 0.166016, 0.674438, -0.734863, 0.244141, -0.610352, -0.488281
1393589, 0.161865, 0.672363, -0.737183, 0.488281, 0.854492, -0.549316
1393609, 0.166992, 0.672607, -0.738770, 0.122070, 2.624512, -0.183106
1393629, 0.180420, 0.675659, -0.736938, 0.488281, 1.342773, -0.671387
1393649, 0.172974, 0.675293, -0.746216, 0.183106, -0.915528, -1.220703
1393669, 0.166260, 0.678711, -0.734375, -0.244141, -1.586915, -1.037598
1393689, 0.162231, 0.677734, -0.730103, 0.366211, -0.915528, -0.183106
1393709, 0.167236, 0.678833, -0.735962, 0.732422, -0.122070, 0.793457
1393729, 0.175903, 0.671631, -0.739136, 0.732422, -0.305176, 0.488281
1393749, 0.175293, 0.673096, -0.743774, 0.244141, -0.915528, 0.000000
1393769, 0.174194, 0.674072, -0.738159, 0.122070, -1.403809, -0.366211
1393789, 0.170898, 0.674316, -0.739380, 0.366211, -1.647950, -0.549316
1393809, 0.167603, 0.674927, -0.740967, 0.122070, -1.098633, -0.732422
1393829, 0.168213, 0.678467, -0.736084, 0.366211, -0.183106, -1.281738
1393849, 0.166504, 0.677368, -0.738281, 0.610352, -0.183106, -1.647950
1393869, 0.163940, 0.676514, -0.740723, 0.244141, -1.342773, -1.708985
1393889, 0.159180, 0.680298, -0.740479, 0.061035, -1.220703, -1.098633
1393909, 0.158447, 0.679321, -0.733765, 0.427246, -0.305176, -0.427246
1393929, 0.161987, 0.677246, -0.736206, 0.732422, -0.366211, 0.915528
1393949, 0.166260, 0.680054, -0.738770, 0.732422, 0.061035, 1.586915
1393969, 0.175049, 0.671143, -0.739746, 1.037598, 0.366211, 1.892090
1393989, 0.180786, 0.665405, -0.744263, 0.793457, 0.183106, 1.159668
1394009, 0.185181, 0.669434, -0.746094, 0.000000, -1.220703, 0.305176
1394029, 0.176880, 0.678101, -0.739258, 0.061035, -3.295899, -0.976563
1394049, 0.162964, 0.674194, -0.737671, -0.061035, -1.831055, -2.624512
1394069, 0.157959, 0.679810, -0.734375, -0.183106, 0.488281, -2.807618
1394089, 0.151855, 0.682617, -0.731689, 0.183106, 1.892090, -2.319336
1394109, 0.148315, 0.679565, -0.738037, 0.427246, 2.319336, -1.159668
1394129, 0.158325, 0.675781, -0.738892, 0.183106, 2.258301, 0.061035
1394149, 0.169556, 0.676758, -0.737427, 0.305176, 1.647950, 1.098633
1394169, 0.180298, 0.676636, -0.741577, 0.671387, -0.793457, 1.953125
1394189, 0.184448, 0.672119, -0.745239, 0.610352, -2.319336, 2.136230
1394209, 0.187012, 0.673462, -0.742676, 0.427246, -3.295899, 1.525879
1394229, 0.182739, 0.672485, -0.738525, 0.549316, -3.051759, -0.366211
1394249, 0.164551, 0.671997, -0.736450, 0.549316, -3.356935, -1.403809
1394269, 0.151367, 0.676025, -0.743286, -0.183106, -2.197266, -2.319336
1394289, 0.149536, 0.680786, -0.733643, -0.732422, -0.610352, -2.319336
1394309, 0.145508, 0.684570, -0.727051, -0.366211, 1.647950, -2.136230
1394329, 0.149414, 0.682861, -0.729858, 0.488281, 3.417970, -0.915528
1394349, 0.162231, 0.675903, -0.740112, 0.549316, 3.540040, 0.305176
1394369, 0.176636, 0.674316, -0.744873, 0.122070, 1.953125, 1.464844
1394389, 0.186035, 0.674072, -0.744263, 0.305176, 0.305176, 2.197266
1394409, 0.193970, 0.669678, -0.744263, 0.488281, -1.098633, 2.563477
1394429, 0.188599, 0.671631, -0.746460, -0.061035, -4.760742, 1.159668
1394449, 0.167114, 0.675537, -0.737427, -0.244141, -4.821777, -0.305176
1394469, 0.151489, 0.673828, -0.732788, -0.183106, -3.295899, -0.915528
1394489, 0.143066, 0.676636, -0.732544, -0.671387, -0.122070, -1.220703
1394509, 0.148926, 0.685181, -0.725586, -0.793457, 3.112794, -0.854492
1394529, 0.164917, 0.686646, -0.725464, 0.427246, 4.333496, -1.159668
1394549, 0.165527, 0.680176, -0.745117, 0.244141, 3.540040, -1.220703
1394569, 0.174805, 0.676636, -0.739258, -0.488281, 1.770020, -0.549316
1394589, 0.184326, 0.676392, -0.733887, 0.061035, -0.610352, 0.366211
1394609, 0.184082, 0.675049, -0.745728, 0.305176, -1.708985, 1.770020
1394629, 0.187866, 0.672241, -0.739014, 0.305176, -2.929688, 1.892090
1394649, 0.178833, 0.675659, -0.740845, 0.061035, -4.760742, 1.159668
1394669, 0.161743, 0.679321, -0.733521, -0.427246, -4.516602, 0.305176
1394689, 0.153442, 0.680298, -0.726685, -0.122070, -1.708985, -0.549316
1394709, 0.147217, 0.684448, -0.728882, 0.183106, 1.647950, -1.098633
1394729, 0.149780, 0.683594, -0.728394, 0.244141, 4.211426, -0.915528
1394749, 0.157471, 0.683350, -0.729980, 0.427246, 4.638672, -0.366211
1394769, 0.167114, 0.678955, -0.737549, 0.488281, 4.699707, 0.366211
1394789, 0.186523, 0.674438, -0.740356, 0.366211, 3.173829, 1.098633
1394809, 0.205200, 0.673096, -0.744141, -0.183106, -0.183106, 2.014160
1394829, 0.205566, 0.675049, -0.740112, 0.427246, -4.089355, 2.319336
1394849, 0.199585, 0.670288, -0.740234, 0.549316, -5.981447, 1.586915
1394869, 0.182129, 0.675537, -0.739502, 0.366211, -5.432129, 0.000000
1394889, 0.164551, 0.680664, -0.732788, 0.427246, -4.943848, -0.488281
1394909, 0.148804, 0.682739, -0.728027, 0.488281, -4.638672, -1.281738
1394929, 0.135986, 0.687500, -0.728149, 0.244141, -2.929688, -1.708985
1394949, 0.130737, 0.684448, -0.724243, 0.183106, 0.854492, -1.586915
1394969, 0.137329, 0.684937, -0.729248, 0.305176, 4.638672, 0.000000
1394989, 0.162476, 0.683105, -0.733887, 0.976563, 6.591799, 2.685547
1395009, 0.195923, 0.670044, -0.746582, 0.976563, 4.638672, 3.540040
1395029, 0.219238, 0.667480, -0.748047, 0.549316, 1.403809, 3.723145
1395049, 0.219482, 0.667969, -0.746704, 0.549316, -2.075195, 2.563477
1395069, 0.205811, 0.669800, -0.743408, 0.427246, -5.981447, 1.159668
1395089, 0.180176, 0.677368, -0.738159, -0.183106, -7.385256, -0.366211
1395109, 0.153442, 0.686401, -0.725952, 0.000000, -5.249023, -1.159668
1395129, 0.137939, 0.684326, -0.720825, 0.671387, -1.770020, -0.793457
1395149, 0.141602, 0.682617, -0.729248, 0.793457, 2.258301, -0.610352
1395169, 0.145508, 0.676880, -0.737793, 0.305176, 4.394531, 0.244141
1395189, 0.163330, 0.668457, -0.742798, -0.732422, 4.943848, 1.892090
1395209, 0.185669, 0.664185, -0.743652, -1.525879, 6.103518, 2.685547
1395229, 0.212646, 0.669434, -0.738770, -1.586915, 5.126953, 3.845216
1395249, 0.229492, 0.673584, -0.734253, -1.159668, 1.525879, 4.394531
1395269, 0.237183, 0.675415, -0.734009, -0.671387, -1.892090, 2.929688
1395289, 0.223267, 0.685181, -0.730957, -0.427246, -4.699707, 0.305176
1395309, 0.199219, 0.688843, -0.723022, 0.549316, -8.117676, -1.281738
1395329, 0.166016, 0.684326, -0.728516, 1.037598, -8.178711, -2.502441
1395349, 0.151245, 0.676147, -0.726929, 0.671387, -5.187988, -3.173829
1395369, 0.143188, 0.678833, -0.730591, -0.183106, -0.732422, -1.831055
1395389, 0.153931, 0.685791, -0.727173, -0.305176, 1.464844, -0.244141
1395409, 0.169678, 0.680786, -0.727295, 0.122070, 3.417970, 0.427246
1395429, 0.189087, 0.677979, -0.736328, 0.427246, 2.868653, 1.464844
1395449, 0.204956, 0.674927, -0.739990, 0.549316, -0.793457, 1.770020
1395469, 0.212158, 0.677612, -0.738037, 0.305176, -3.967286, 1.525879
1395489, 0.212769, 0.686157, -0.725952, 0.793457, -4.943848, 0.366211
1395509, 0.208740, 0.686401, -0.727173, 2.380371, -7.141115, -0.488281
1395529, 0.193970, 0.681519, -0.737549, 2.746582, -9.826660, -1.647950
1395549, 0.175903, 0.682861, -0.735962, 2.685547, -10.681152, -3.356935
1395569, 0.132446, 0.675903, -0.738892, 2.746582, -6.530764, -4.333496
1395589, 0.122559, 0.671387, -0.739868, 1.953125, -2.502441, -2.990724
1395609, 0.128052, 0.672363, -0.738037, 1.708985, 0.305176, -1.220703
1395629, 0.132446, 0.665771, -0.754761, 0.854492, 2.441406, 0.244141
1395649, 0.144043, 0.659912, -0.757202, -0.915528, 3.784181, 2.258301
1395669, 0.159180, 0.664185, -0.749390, -2.014160, 3.662110, 4.089355
1395689, 0.164063, 0.675415, -0.744263, -2.441406, 3.845216, 5.371094
1395709, 0.169067, 0.678345, -0.734009, -2.075195, 4.638672, 6.347658
1395729, 0.181030, 0.672729, -0.734009, -1.831055, 5.310059, 6.042482
1395749, 0.195923, 0.678345, -0.731445, -2.075195, 5.493164, 3.906251
1395769, 0.202026, 0.680908, -0.725830, -1.647950, 3.906251, 1.892090
1395789, 0.189941, 0.683350, -0.725830, -1.586915, 3.173829, 0.244141
1395809, 0.171021, 0.683105, -0.722656, -1.770020, 2.685547, -0.305176
1395829, 0.163086, 0.686768, -0.721924, -1.831055, 4.577637, 0.488281
1395849, 0.172363, 0.686523, -0.723267, -1.098633, 6.408693, 2.136230
1395869, 0.187622, 0.671753, -0.730347, -1.037598, 7.019045, 4.394531
1395889, 0.211914, 0.664673, -0.734009, -1.708985, 6.896975, 5.615236
1395909, 0.230835, 0.673218, -0.732300, -2.014160, 5.859377, 5.187988
1395929, 0.237671, 0.682983, -0.726807, -1.525879, 4.028320, 4.211426
1395949, 0.252075, 0.670410, -0.731445, 0.122070, -2.624512, 1.159668
1395969, 0.227905, 0.671875, -0.737793, -0.976563, -5.676271, -1.525879
1412550, 0.814697, 0.814209, -0.382813, 7.812502, -92.285187, -60.058609
1412570, 0.378784, 0.831909, -0.371460, -20.324707, -109.069855, -43.640137
1412590, 0.119019, 0.811157, -0.243164, -26.428230, -107.666046, -14.038090
1412610, 0.098267, 0.935181, -0.347290, -17.028809, -57.617203, 19.592285
1412630, 0.068604, 0.892212, -0.518921, -8.666992, -46.875015, 16.601563
1412650, 0.005127, 0.886230, -0.560303, -13.916019, -48.339859, 22.399910
1412670, -0.057251, 0.882324, -0.575439, -12.939457, -47.424332, 18.493652
1412690, -0.101196, 0.880493, -0.523682, -8.422852, -31.127937, 13.183598
1412710, -0.024536, 0.891113, -0.499634, -0.793457, -21.118164, 9.216309
1412730, -0.023682, 0.878662, -0.552246, 4.882813, -13.916019, 3.417970
1412750, -0.044922, 0.868408, -0.604126, 9.338379, -10.559082, -9.643555
1412770, -0.199219, 0.834717, -0.657104, -5.676271, 12.939457, 5.187988
1412790, -0.087646, 0.870361, -0.470947, -12.634281, 40.344238, 28.991707
1412810, 0.277832, 0.886963, -0.366455, -10.742188, 63.720718, 39.367676
1412830, 0.497192, 0.900513, -0.312500, -2.746582, 43.029785, 30.883797
1412850, 0.565796, 0.890625, -0.347168, 5.310059, 12.634281, 14.343266
1412870, 0.485229, 0.875732, -0.390137, 9.826660, -7.507326, -2.685547
1412890, 0.339355, 0.865601, -0.441284, 10.498047, -13.977055, -12.390141
1412910, 0.219604, 0.864746, -0.455933, 8.911133, -10.620117, -12.695316
1412930, 0.176758, 0.866089, -0.464966, 7.385256, -3.540040, -8.056641
1412950, 0.159424, 0.865112, -0.465088, 5.126953, 3.845216, -1.892090
1412970, 0.147339, 0.870483, -0.432617, 5.249023, 10.681152, 5.859377
1412990, 0.188477, 0.868042, -0.428955, 6.896975, 19.531250, 16.296387
1413010, 0.249756, 0.863403, -0.428467, 8.117676, 21.301270, 20.385742
1413030, 0.261841, 0.863647, -0.417969, 9.643555, 23.498543, 22.155769
1413050, 0.313965, 0.867065, -0.448364, 10.437012, 24.963387, 21.972656
1413070, 0.353394, 0.863037, -0.498413, 3.723145, 19.409180, 13.671879
1413090, 0.345703, 0.877319, -0.477783, -1.953125, 10.986328, 6.164553
1413110, 0.318726, 0.887939, -0.433960, -4.272461, 5.859377, 1.525879
1413130, 0.310425, 0.876953, -0.456543, -7.385256, 2.990724, -6.530764
1413150, 0.259155, 0.911011, -0.393066, -7.019045, -3.417970, -11.657719
1413170, 0.287964, 0.946899, -0.429321, -7.568361, -10.009766, -19.653320
1413190, 0.101929, 0.945801, -0.327026, -8.239746, -17.700195, -34.606934
1413210, 0.001221, 0.940308, -0.322266, -3.540040, -6.347658, -21.728516
1413230, 0.047119, 0.966309, -0.367065, -3.234864, 6.896975, -14.648441
1413250, 0.094727, 0.953613, -0.384766, -5.798342, 16.601563, -18.249512
1413270, 0.099487, 0.951660, -0.363770, -7.080080, 23.803719, -19.897461
1413290, 0.111694, 0.937012, -0.317993, 0.915528, 27.832039, -18.798828
1413310, 0.170532, 0.921509, -0.385376, 5.065918, 33.386230, -16.967773
1413330, 0.163208, 0.880127, -0.346924, 7.812502, 40.893555, -11.474613
1413350, 0.277832, 0.838501, -0.375244, 14.160160, 35.644531, 3.540040
1413370, 0.374512, 0.804810, -0.424683, 11.169437, 36.437988, 16.723633
1413390, 0.444946, 0.776978, -0.382568, 16.845703, 39.001465, 23.193367
1413410, 0.538818, 0.742432, -0.387329, 23.254402, 39.611816, 23.437508
1413430, 0.645630, 0.739502, -0.443115, 26.611336, 35.095215, 26.855476
1413450, 0.714600, 0.708252, -0.481201, 24.597176, 18.737793, 25.451668
1413470, 0.717529, 0.715210, -0.488159, 24.414070, 1.770020, 21.179199
1413490, 0.706787, 0.745239, -0.596191, 18.859863, -6.896975, 7.995607
1413510, 0.642944, 0.769409, -0.616577, 5.737307, -13.732914, -15.869144
1413530, 0.533691, 0.793335, -0.584229, -6.591799, -22.277840, -33.752441
1413550, 0.394165, 0.814575, -0.514038, -15.625004, -30.456551, -42.480469
1413570, 0.205566, 0.854248, -0.419434, -19.470215, -25.756844, -40.710449
1413590, 0.144043, 0.879883, -0.365479, -14.770512, -15.563969, -32.775879
1413610, 0.109741, 0.891357, -0.358032, -8.422852, -6.652834, -22.399910
1413630, 0.110596, 0.901733, -0.332153, -0.549316, 0.305176, -10.253906
1413650, 0.182617, 0.894165, -0.353638, 7.507326, 5.493164, -1.586915
1413670, 0.259277, 0.882935, -0.390991, 12.878422, 4.150391, 1.586915
1413690, 0.323486, 0.862061, -0.459229, 13.977055, -0.915528, 0.000000
1413710, 0.320068, 0.851440, -0.498535, 10.559082, -5.310059, -4.760742
1413730, 0.281494, 0.845215, -0.522095, 4.760742, -8.544922, -6.896975
1413750, 0.249634, 0.869507, -0.436646, 1.220703, -6.530764, -7.568361
1413770, 0.274048, 0.871948, -0.435181, 2.929688, -4.821777, -8.666992
1413790, 0.276733, 0.872925, -0.422485, 4.882813, -5.676271, -11.047363
1413810, 0.249634, 0.868530, -0.445801, 6.835939, -5.432129, -13.000492
1413830, 0.188965, 0.864502, -0.463501, 6.896975, -3.173829, -11.413578
1413850, 0.167603, 0.859985, -0.491699, 5.187988, 0.000000, -6.591799
1413870, 0.179199, 0.855347, -0.506470, 2.075195, 2.136230, -1.953125
1413890, 0.181396, 0.854858, -0.503418, -1.708985, 5.187988, 1.892090
1413910, 0.213501, 0.861450, -0.480591, -4.333496, 6.347658, 4.943848
1413930, 0.236938, 0.867310, -0.456177, -4.821777, 6.652834, 5.676271
1413950, 0.264160, 0.867188, -0.458618, -4.882813, 3.845216, 5.065918
1413970, 0.254761, 0.870483, -0.439209, -4.455566, 2.197266, 4.028320
1413990, 0.242554, 0.869263, -0.446533, -3.540040, 1.159668, 4.455566
1414010, 0.234863, 0.871826, -0.436401, -3.234864, 0.122070, 5.371094
1414030, 0.232788, 0.875000, -0.421875, -1.098633, 0.549316, 7.019045
1414050, 0.263794, 0.871948, -0.434326, 0.366211, 1.403809, 7.141115
1414070, 0.271118, 0.876709, -0.416382, 2.136230, -0.305176, 6.225588
1414090, 0.269897, 0.874023, -0.421265, 5.371094, -2.258301, 5.798342
1414110, 0.278198, 0.858643, -0.470581, 5.249023, -2.807618, 4.577637
