timestamp,ax,ay,az,gx,gy,gz
1466593, 0.291748, 0.887085, -0.371216, 3.356935, -11.413578, 0.915528
1466613, 0.278687, 0.888062, -0.344971, 1.586915, -7.751467, 3.295899
1466633, 0.306396, 0.894165, -0.355835, 1.892090, -6.103518, 4.455566
1466653, 0.295898, 0.895142, -0.351685, 1.831055, -8.056641, 5.615236
1466673, 0.272705, 0.879761, -0.376953, 1.464844, -3.051759, 7.446291
1466693, 0.278564, 0.885010, -0.366821, -0.671387, 4.760742, 8.666992
1466713, 0.277954, 0.892212, -0.344360, 0.061035, 9.033203, 11.596684
1466733, 0.351685, 0.885010, -0.343750, 0.793457, 7.263186, 13.305668
1466753, 0.406372, 0.885986, -0.343384, 1.342773, 3.295899, 8.850098
1466773, 0.347168, 0.893311, -0.321411, 2.929688, -1.464844, 5.798342
1466793, 0.279175, 0.892456, -0.322266, 7.873537, 0.061035, 10.070801
1466813, 0.288574, 0.874023, -0.363159, 9.033203, 6.958010, 14.221195
1466833, 0.364136, 0.870483, -0.367310, 8.239746, 9.033203, 14.831547
1466853, 0.422119, 0.861816, -0.369995, 7.446291, 5.554201, 11.535648
1466873, 0.439331, 0.856567, -0.402344, 4.699707, -4.211426, 6.530764
1466893, 0.425537, 0.845459, -0.452759, -5.371094, -3.540040, -0.793457
1466913, 0.345947, 0.868896, -0.355347, -7.080080, -4.638672, -2.624512
1466933, 0.310913, 0.869995, -0.351563, -5.065918, -4.699707, 0.549316
1466953, 0.329712, 0.871582, -0.340210, -2.868653, -1.953125, 3.540040
1466973, 0.390381, 0.875122, -0.333374, -0.122070, -2.990724, 3.417970
1466993, 0.375122, 0.874390, -0.365723, 0.610352, -6.469728, -1.586915
1467013, 0.328003, 0.877319, -0.353394, 0.549316, -7.507326, -0.305176
1467033, 0.271484, 0.889404, -0.354736, 1.647950, -1.342773, 3.234864
1467053, 0.201904, 0.918457, -0.342896, 3.784181, 8.789063, 12.146000
1467073, 0.219360, 0.971558, -0.313965, 8.361816, 28.747566, 23.071297
1467093, 0.388672, 1.078735, -0.202881, 32.043457, 21.118164, 22.949226
1467113, 0.433228, 1.095825, -0.272461, 66.589355, -0.244141, 33.447266
1467133, 0.427490, 1.047974, -0.565796, 93.505890, -15.136723, 33.386230
1467153, 0.387207, 0.982544, -0.757935, 113.037140, -14.587406, 9.460449
1467173, 0.291870, 0.722900, -0.946167, 103.454620, -19.897461, -46.386734
1467193, 0.101196, 0.527832, -0.999268, 70.495605, -26.794441, -70.678711
1467213, -0.035034, 0.422363, -0.835938, 31.738289, -14.709476, -72.692871
1467233, -0.013916, 0.485718, -0.564331, 5.859377, 15.197758, -63.537613
1467253, 0.075928, 0.576660, -0.347168, -2.014160, 52.612320, -49.133316
1467273, 0.217163, 0.622192, -0.279053, -2.136230, 78.308105, -32.531738
1467293, 0.391846, 0.617554, -0.308472, -7.812502, 87.890625, -23.193367
1467313, 0.537109, 0.692261, -0.352661, -20.751953, 75.744629, -27.526863
1467333, 0.591553, 0.746704, -0.328613, -35.400391, 50.537125, -36.926270
1467353, 0.520508, 0.802734, -0.283569, -47.607437, 23.010262, -36.254883
1467373, 0.375122, 0.876221, -0.210938, -51.818863, 8.605957, -11.352543
1467393, 0.375977, 0.913696, -0.206055, -44.982925, 17.639160, 5.920412
1467413, 0.388916, 1.007813, -0.289795, -35.522461, 35.644531, 26.123055
1467433, 0.547852, 1.234985, -0.353516, -25.146492, 38.146973, 36.071777
1467453, 0.690796, 1.012939, -0.328003, -13.244633, 26.306160, 13.366703
1467473, 0.633545, 0.860718, -0.361206, -8.850098, -0.366211, -6.469728
1467493, 0.488403, 0.845825, -0.396118, -10.437012, -17.089844, -19.348145
1467513, 0.328857, 0.865479, -0.364868, -11.108402, -25.085457, -20.690918
1467533, 0.227905, 0.885376, -0.338135, -8.666992, -22.094727, -14.709476
1467553, 0.218628, 0.874512, -0.377686, -4.516602, -5.187988, -3.051759
1467573, 0.248047, 0.903931, -0.411377, -6.103518, 2.868653, 4.150391
1467593, 0.275146, 0.886475, -0.362427, -6.164553, 5.554201, 9.948730
1467613, 0.327271, 0.889038, -0.349731, -4.333496, 9.460449, 12.268070
1467633, 0.370117, 0.878906, -0.328613, -1.708985, 10.803223, 11.047363
1467653, 0.400391, 0.865723, -0.353638, 0.732422, 7.019045, 8.361816
1467673, 0.401733, 0.867676, -0.366089, -0.122070, -1.586915, 5.554201
1467693, 0.356689, 0.875000, -0.347168, 0.976563, -6.347658, 4.516602
1467713, 0.335693, 0.875854, -0.366577, 1.770020, -4.028320, 5.371094
1467733, 0.346069, 0.865356, -0.377075, 1.586915, 0.366211, 5.493164
1467753, 0.375854, 0.865967, -0.369629, 0.183106, 1.281738, 4.821777
1467773, 0.364624, 0.869995, -0.344116, 0.976563, -0.122070, 3.845216
1467793, 0.364136, 0.872192, -0.340820, 3.234864, -1.586915, 4.577637
1467813, 0.396606, 0.876709, -0.321899, 5.981447, -5.126953, 3.906251
1467833, 0.460449, 0.875977, -0.313354, 10.559082, -11.596684, 0.427246
1467853, 0.588989, 0.869263, -0.325195, 14.770512, -30.029305, -9.521484
1467873, 0.499878, 0.776733, -0.557373, -7.690432, -19.348145, -16.418457
1467893, 0.540283, 0.795288, -0.322388, -37.231445, -20.568848, -8.728027
1467913, 0.439209, 0.871216, -0.107666, -33.447266, -26.855476, 2.502441
1467933, 0.511841, 0.879883, -0.159058, -28.259285, -14.282230, 25.878914
1467953, 0.576904, 0.901245, -0.174927, -20.751953, -17.395020, 18.371582
1467973, 0.531494, 0.891357, -0.237061, -13.244633, -43.823242, 11.169437
1467993, 0.432251, 0.869751, -0.379150, -19.531250, -51.757828, 5.859377
1468013, 0.381836, 0.918457, -0.308716, -19.226074, -67.504883, -1.892090
1468033, 0.161865, 0.880371, -0.434082, -15.808109, -60.546890, -7.507326
1468053, 0.128296, 0.888062, -0.436768, -22.460945, -47.058121, 2.441406
1468073, 0.124878, 0.930664, -0.380371, -16.235352, -38.330078, 5.187988
1468093, 0.112671, 0.932617, -0.415649, -4.333496, -32.531738, 1.220703
1468113, 0.098999, 0.919434, -0.472046, 2.380371, -26.000984, -3.601075
1468133, 0.072388, 0.901123, -0.524658, 6.774904, -17.883301, -10.742188
1468153, -0.021729, 0.868042, -0.536621, 4.455566, -1.708985, -6.774904
1468173, 0.015625, 0.850342, -0.530151, -10.070801, 20.690918, 15.197758
1468193, 0.139160, 0.879639, -0.383911, -17.333984, 40.222168, 29.052742
1468213, 0.273926, 0.889282, -0.307251, -16.601563, 50.781265, 36.499023
1468233, 0.436523, 0.890991, -0.272461, -13.427738, 48.278824, 33.874512
1468253, 0.502563, 0.898071, -0.236572, -8.056641, 33.630371, 26.489265
1468273, 0.491577, 0.896606, -0.228882, -1.525879, 17.211914, 19.165039
1468293, 0.458496, 0.896729, -0.224854, 5.493164, 4.211426, 13.610844
1468313, 0.369629, 0.904297, -0.254395, 15.319828, -2.563477, 11.474613
1468333, 0.435059, 0.912476, -0.404785, 12.878422, -10.070801, -0.976563
1468353, 0.356079, 0.911255, -0.380859, 2.258301, -13.549809, -10.620117
1468373, 0.264038, 0.930908, -0.337769, 0.244141, -14.160160, -15.563969
1468393, 0.194458, 0.938477, -0.360229, -5.310059, -7.751467, -16.357422
1468413, 0.188354, 0.963501, -0.302612, -6.774904, -3.479005, -18.493652
1468433, 0.148315, 0.976196, -0.257813, -3.540040, 0.427246, -18.249512
1468453, 0.152344, 0.979736, -0.279663, -1.770020, 7.385256, -17.639160
1468473, 0.237305, 0.996948, -0.285645, -2.502441, 4.577637, -20.812988
1468493, 0.196411, 0.974365, -0.293823, -1.586915, 3.906251, -35.583496
1468513, 0.092163, 0.969116, -0.239624, 2.868653, 5.859377, -30.151375
1468533, 0.066040, 0.936279, -0.263062, 7.446291, 23.376472, -20.446777
1468553, 0.061279, 0.904785, -0.272583, 10.375977, 39.978027, 1.708985
1468573, 0.199829, 0.844116, -0.294067, 11.901859, 53.466812, 22.583015
1468593, 0.401978, 0.800049, -0.332031, 11.718754, 62.500015, 41.625977
1468613, 0.699341, 0.729370, -0.373779, 10.314941, 62.561050, 45.898453
1468633, 0.952026, 0.655884, -0.469727, -0.061035, 45.898453, 37.414551
1468653, 1.130493, 0.669189, -0.500366, -16.784668, 22.644051, 15.686039
1468673, 1.152954, 0.699341, -0.456543, -30.456551, 5.676271, -17.639160
1468693, 0.829346, 0.841431, -0.408447, -38.574219, -2.868653, -65.246582
1468713, 0.702515, 0.951294, -0.257080, -32.226563, -7.995607, -82.458496
1468733, 0.271240, 1.252808, 0.188721, 50.170914, -42.602539, -47.668472
1468753, 0.099854, 1.044434, -0.218262, 102.478058, -60.485855, 9.582520
1468773, 0.123535, 0.637451, -0.539429, 94.909698, -27.221687, 25.634773
1468793, 0.051758, 0.394775, -0.659302, 52.673355, -10.131836, 20.019531
1468813, 0.020874, 0.420166, -0.544678, 7.873537, 5.493164, 21.484375
1468833, 0.105957, 0.549683, -0.339111, -16.845703, 20.874023, 23.376472
1468853, 0.203613, 0.642944, -0.227661, -24.719246, 30.639656, 12.939457
1468873, 0.274292, 0.661987, -0.206543, -33.264160, 31.982430, -18.432617
1468893, 0.590210, 1.814453, -0.480347, -62.927261, 34.118652, 1.586915
1468913, 0.689941, 1.099487, 0.396851, -28.320320, -26.184090, -8.422852
1468933, 0.556519, 1.040771, 0.391113, 30.639656, -63.171402, -25.573738
1468953, 0.249146, 0.963989, -0.029663, 72.204590, -78.735352, -29.968269
1468973, -0.008911, 0.671265, -0.928345, 13.305668, 0.427246, -3.051759
1468993, 0.517334, 0.857178, -0.213013, -42.785645, 29.907234, 14.465336
1469013, 0.523926, 0.934814, 0.084961, -17.578125, -13.488773, 22.827156
1469033, 0.564575, 0.859497, -0.260132, -9.399414, -34.179688, 30.456551
1469053, 0.638184, 0.876099, -0.286621, -15.258793, -51.635757, 20.751953
1469073, 0.404907, 0.887817, -0.392212, -15.075687, -73.303223, 3.784181
1469093, 0.265137, 0.900513, -0.468750, -15.319828, -70.556641, -5.187988
1469113, 0.166382, 0.927368, -0.477905, -11.474613, -60.791031, -16.784668
1469133, 0.028687, 0.924561, -0.502563, -1.586915, -47.485367, -28.625496
1469153, -0.018799, 0.902832, -0.540283, 4.821777, -33.142090, -31.372078
1469173, -0.100586, 0.860840, -0.583374, 6.103518, -13.549809, -28.686531
1469213, 0.137817, 0.884033, -0.434204, -28.076180, 17.333984, 9.155273
1469233, 0.256714, 0.910889, -0.318115, -30.822762, 21.240234, 14.404301
1469253, 0.394531, 0.936401, -0.213257, -20.629883, 15.808109, 3.967286
1469273, 0.426392, 0.954346, -0.142578, -8.483887, 0.976563, -5.859377
1469293, 0.332397, 0.957886, -0.146240, 5.554201, -9.460449, -11.596684
1469313, 0.227783, 0.944946, -0.207397, 16.357422, -10.803223, -10.742188
1469333, 0.189697, 0.922363, -0.287354, 22.033691, -5.676271, -5.371094
1469353, 0.216431, 0.900391, -0.375244, 20.263672, -2.075195, -0.305176
1469373, 0.229492, 0.893188, -0.398804, 14.770512, -0.793457, 3.173829
1469393, 0.235229, 0.890503, -0.410156, 9.216309, 0.244141, 6.652834
1469413, 0.256104, 0.886719, -0.416870, 2.258301, 3.112794, 8.178711
1469433, 0.265259, 0.888672, -0.406738, -3.845216, 2.624512, 9.704590
1469453, 0.234497, 0.914185, -0.304443, -7.141115, 5.004883, 13.488773
1469473, 0.255981, 0.915771, -0.291016, -3.601075, 9.277344, 16.601563
1469493, 0.308960, 0.910889, -0.297119, -1.098633, 10.559082, 17.272949
1469513, 0.366699, 0.905518, -0.302612, 1.403809, 7.019045, 14.831547
1469533, 0.375854, 0.898560, -0.323120, 2.075195, 2.075195, 9.643555
1469553, 0.323364, 0.892578, -0.356812, 1.159668, 0.915528, 7.019045
1469573, 0.297485, 0.889282, -0.366333, -2.624512, 2.380371, 7.690432
1469593, 0.325073, 0.892212, -0.345093, -4.943848, 4.638672, 8.178711
1469613, 0.358643, 0.895264, -0.327393, -6.225588, 4.821777, 5.859377
1469633, 0.363770, 0.902954, -0.286743, -4.028320, 0.488281, 1.708985
1469653, 0.336060, 0.906982, -0.286377, -1.342773, -0.366211, -0.366211
1469673, 0.319824, 0.904297, -0.296509, 0.671387, -1.098633, -0.061035
1469693, 0.326294, 0.894165, -0.328979, 0.915528, -0.610352, 0.122070
1469713, 0.331055, 0.894165, -0.334961, -0.976563, -1.831055, 0.061035
1469733, 0.339355, 0.899170, -0.320190, -1.708985, -3.112794, -0.427246
1469753, 0.336304, 0.902588, -0.303345, -1.464844, -3.540040, -1.586915
1469773, 0.320190, 0.909302, -0.289917, 0.366211, -4.394531, -1.892090
1469793, 0.308105, 0.899048, -0.303223, 2.014160, -4.211426, -0.732422
