timestamp,ax,ay,az,gx,gy,gz
1358947, 0.280396, 0.882568, -0.376343, 0.610352, 1.037598, 1.953125
1358967, 0.295654, 0.905518, -0.382080, 1.281738, 2.258301, 2.197266
1358987, 0.301636, 0.876099, -0.384521, 1.342773, 0.671387, 0.854492
1359007, 0.290161, 0.881226, -0.400879, -1.159668, 0.244141, 0.366211
1359027, 0.286499, 0.887451, -0.390991, -2.380371, 1.831055, 0.061035
1359047, 0.286255, 0.892090, -0.374634, -2.380371, 2.868653, -0.061035
1359067, 0.287354, 0.889526, -0.371460, -1.708985, 3.356935, 0.244141
1359087, 0.289307, 0.889648, -0.372192, -1.464844, 2.929688, 0.183106
1359107, 0.283325, 0.895142, -0.360718, -0.488281, 2.014160, 0.854492
1359127, 0.282715, 0.890503, -0.366333, 0.610352, 2.075195, 1.464844
1359147, 0.283325, 0.891357, -0.367798, 1.281738, 2.502441, 2.197266
1359167, 0.281860, 0.889160, -0.373169, 1.770020, 2.136230, 3.234864
1359187, 0.286865, 0.886353, -0.380493, 1.403809, 3.906251, 4.821777
1359207, 0.302734, 0.885620, -0.376587, 1.281738, 4.089355, 4.882813
1359227, 0.317505, 0.882080, -0.384888, 0.854492, 3.234864, 4.150391
1359247, 0.309937, 0.883301, -0.380859, -0.122070, 1.220703, 3.356935
1359267, 0.303223, 0.886353, -0.368286, 0.183106, 1.464844, 3.234864
1359287, 0.307617, 0.886475, -0.369751, 0.610352, 2.319336, 2.807618
1359307, 0.303101, 0.886719, -0.368652, 1.159668, 2.746582, 2.685547
1359327, 0.313110, 0.883911, -0.372681, 1.525879, 2.746582, 2.868653
1359347, 0.316895, 0.884033, -0.376709, 1.281738, 2.136230, 2.136230
1359367, 0.321899, 0.881470, -0.370972, 1.342773, 0.793457, 2.014160
1359387, 0.322998, 0.882568, -0.380493, 1.220703, -1.525879, -0.061035
1359407, 0.304810, 0.881104, -0.375732, 0.915528, -1.892090, 0.000000
1359427, 0.303711, 0.882080, -0.378418, 0.793457, -1.220703, 0.427246
1359447, 0.306763, 0.880249, -0.379883, 0.427246, -0.610352, 0.671387
1359467, 0.307373, 0.882080, -0.378052, 0.000000, -0.122070, 0.976563
1359487, 0.307007, 0.883545, -0.368042, 0.305176, 0.183106, 1.403809
1359507, 0.316528, 0.883667, -0.372559, 0.793457, -0.427246, 1.342773
1359527, 0.316650, 0.880615, -0.376587, 0.793457, -0.610352, 0.915528
1359547, 0.313477, 0.881836, -0.377319, 0.732422, -1.037598, 0.915528
1359567, 0.305298, 0.883179, -0.379150, 0.305176, 0.793457, 1.220703
1359587, 0.309814, 0.884766, -0.383179, 0.061035, 1.342773, 1.403809
1359607, 0.257446, 0.881104, -0.383545, -0.671387, 1.953125, 4.028320
1359627, 0.243652, 0.880859, -0.364624, -0.671387, 5.310059, 10.253906
1359647, 0.317627, 0.886841, -0.338013, 1.220703, 8.666992, 12.268070
1359667, 0.373169, 0.883911, -0.334473, 4.699707, 11.352543, 9.521484
1359687, 0.402466, 0.874268, -0.355835, 6.713869, 8.300781, 4.882813
1359707, 0.405884, 0.860962, -0.398926, 6.286623, -0.244141, 0.366211
1359727, 0.358765, 0.849731, -0.453979, 1.159668, -3.417970, -2.929688
1359747, 0.334961, 0.854980, -0.437866, -5.310059, -2.990724, -3.662110
1359767, 0.318115, 0.877197, -0.368652, -8.789063, -1.831055, -3.173829
1359787, 0.312866, 0.889893, -0.330322, -6.591799, -2.319336, -1.892090
1359807, 0.309082, 0.895264, -0.318115, -2.563477, -2.014160, -0.488281
1359827, 0.318848, 0.890137, -0.332275, 1.220703, -1.342773, 0.671387
1359847, 0.318115, 0.884277, -0.365112, 2.746582, -0.244141, 1.098633
1359867, 0.310913, 0.880859, -0.385132, 2.075195, 0.854492, 2.197266
1359887, 0.283325, 0.894775, -0.401123, 0.610352, 2.624512, 4.394531
1359907, 0.239014, 0.929321, -0.427368, -1.708985, 8.483887, 9.033203
1359927, 0.200562, 0.934204, -0.410522, 4.028320, -1.098633, 5.493164
1359947, 0.081055, 1.007324, -0.519531, 20.263672, 5.737307, 17.822266
1359967, 0.203735, 1.053589, -0.505859, 41.992188, 18.249512, 10.375977
1359987, 0.299194, 0.992065, -0.558838, 70.007324, 21.972656, -15.197758
1360007, 0.343140, 0.830566, -0.657715, 87.829590, 8.544922, -46.936050
1360027, 0.175781, 0.607056, -0.821777, 79.895020, -2.746582, -75.073242
1360048, -0.014893, 0.508057, -0.900635, 46.325699, -8.117676, -77.819824
1360068, -0.078857, 0.566528, -0.725464, 8.483887, 5.493164, -62.622086
1360088, -0.019653, 0.702881, -0.463745, -10.498047, 25.085457, -38.391113
1360108, 0.130859, 0.841919, -0.271973, -10.070801, 44.616714, -17.761230
1360128, 0.391113, 0.942017, -0.174072, -1.525879, 83.129883, 4.272461
1360148, 0.588379, 0.975952, -0.219604, -2.319336, 80.566406, 17.761230
1360168, 0.741699, 0.995117, -0.204712, -4.516602, 59.143082, 18.310547
1360188, 0.798706, 0.909058, -0.160034, -3.662110, 23.864754, 4.699707
1360208, 0.670410, 0.792725, -0.211914, -5.615236, -5.859377, -7.141115
1360228, 0.500977, 0.747803, -0.261475, -16.052246, -15.625004, -12.756351
1360248, 0.359497, 0.797241, -0.282593, -27.709969, -11.901859, -12.695316
1360268, 0.300049, 1.059814, -0.326782, -34.057617, -12.023930, -2.624512
1360288, 0.338867, 1.084351, -0.194824, -12.207035, -5.859377, 0.122070
1360308, 0.351563, 0.871094, -0.423950, 2.441406, -0.366211, -9.643555
1360328, 0.230225, 0.869995, -0.406738, 0.061035, 1.464844, -8.605957
1360348, 0.182495, 0.856201, -0.396606, 0.854492, 3.845216, -0.732422
1360368, 0.231323, 0.859863, -0.416626, -0.976563, 9.094238, 6.103518
1360388, 0.305176, 0.845337, -0.416748, -1.953125, 10.803223, 7.629396
1360408, 0.345093, 0.894409, -0.454224, -5.432129, 4.516602, 6.958010
1360428, 0.377930, 0.891846, -0.417847, -7.934572, 0.183106, 4.089355
1360448, 0.364868, 0.873169, -0.384399, -7.568361, -0.854492, -1.159668
1360468, 0.347290, 0.878418, -0.359009, -6.530764, -0.244141, -5.310059
1360488, 0.331055, 0.897339, -0.321655, -2.014160, -3.662110, -7.202150
1360508, 0.285889, 0.878784, -0.384644, 2.807618, -6.164553, -6.958010
1360528, 0.279663, 0.874756, -0.403687, 2.075195, -3.784181, -6.103518
1360548, 0.275757, 0.889404, -0.384155, 1.708985, -2.807618, -4.394531
1360568, 0.292480, 0.882690, -0.368652, 3.417970, -3.417970, -3.173829
1360588, 0.274780, 0.880005, -0.365723, 4.882813, -2.990724, -3.479005
1360608, 0.284912, 0.900513, -0.374146, 7.385256, -1.159668, -1.220703
1360628, 0.352417, 0.888184, -0.373535, 9.826660, -3.173829, -3.051759
1360648, 0.406250, 0.887451, -0.368042, 12.023930, -13.793949, -8.422852
1360668, 0.386353, 0.874512, -0.392822, 14.221195, -23.254402, -17.089844
1360688, 0.422729, 0.860352, -0.361572, -26.367195, -12.390141, -3.601075
1360708, 0.369141, 0.889893, -0.217896, -28.259285, -13.000492, 6.896975
1360728, 0.460693, 0.905396, -0.132813, -26.916512, -13.671879, 19.958496
1360748, 0.538330, 0.879883, -0.144409, -19.226074, -16.113281, 21.484375
1360768, 0.578491, 0.910645, -0.172363, -17.517090, -31.250008, 25.878914
1360788, 0.523315, 0.894043, -0.219604, -10.314941, -54.443375, 20.690918
1360828, 0.293091, 0.914307, -0.378784, -11.901859, -67.565918, 13.183598
1360848, 0.184082, 0.902222, -0.479858, -9.155273, -73.852539, 6.042482
1360868, 0.034546, 0.867310, -0.560669, -14.038090, -62.133804, 5.187988
1360888, 0.004150, 0.937744, -0.498291, -2.380371, -56.640640, -3.295899
1360908, -0.044922, 0.892578, -0.593262, 2.929688, -40.588379, -14.831547
1360928, -0.062744, 0.894531, -0.578979, 4.943848, -29.541023, -22.216805
1360948, -0.132080, 0.858276, -0.621338, -0.122070, -18.249512, -21.972656
1360968, -0.157104, 0.854980, -0.563232, -16.967773, 6.286623, 3.479005
1360988, -0.041260, 0.892822, -0.403809, -21.911621, 26.123055, 26.184090
1361008, 0.144775, 0.905273, -0.336060, -20.080566, 39.672852, 38.085938
1361028, 0.302124, 0.916382, -0.285645, -14.709476, 44.067383, 37.902832
1361048, 0.400513, 0.924316, -0.239014, -6.042482, 34.667969, 32.348633
1361068, 0.398315, 0.920044, -0.241577, 11.230473, 7.873537, 21.606445
1361088, 0.313721, 0.894531, -0.323608, 17.395020, -0.549316, 19.958496
1361108, 0.254639, 0.890869, -0.356201, 19.409180, -2.380371, 22.338875
1361128, 0.175171, 0.880981, -0.412476, 18.005371, -2.685547, 29.296883
1361148, 0.235474, 0.924438, -0.579712, 1.953125, -2.014160, 25.695808
1361168, 0.300903, 0.944946, -0.489136, -17.700195, 1.525879, 4.028320
1361188, 0.229492, 0.987549, -0.317871, -15.136723, -10.009766, -10.253906
1361208, 0.172607, 0.973511, -0.337036, -10.314941, -21.606445, -20.629883
1361228, 0.042114, 0.975830, -0.302124, -5.187988, -14.099125, -22.521980
1361248, -0.026245, 1.002563, -0.275024, 2.075195, -0.305176, -15.563969
1361268, 0.081665, 0.983521, -0.372803, 4.638672, 11.169437, -20.141602
1361288, 0.104614, 0.973633, -0.319702, 2.929688, 10.864258, -20.385742
1361308, 0.102295, 0.938477, -0.288208, 7.446291, 14.282230, -19.104004
1361328, 0.079834, 0.922485, -0.309937, 9.277344, 20.996094, -8.117676
1361348, 0.147339, 0.909790, -0.275757, 13.061527, 33.569336, 5.310059
1361368, 0.310791, 0.855103, -0.260620, 21.972656, 40.405273, 19.348145
1361388, 0.451172, 0.782837, -0.301758, 29.296883, 43.579102, 26.550301
1361408, 0.570557, 0.722290, -0.308350, 35.827637, 44.677750, 37.170410
1361428, 0.709595, 0.661865, -0.375000, 38.757324, 43.640137, 48.645035
1361448, 0.935425, 0.610840, -0.517334, 27.221687, 21.606445, 48.767105
1361468, 0.994629, 0.648071, -0.541260, 15.686039, -2.929688, 35.888672
1361488, 0.929565, 0.689575, -0.563721, 6.042482, -23.437508, 10.192871
1361508, 0.774414, 0.744141, -0.549194, -0.976563, -34.729004, -14.343266
1361528, 0.660400, 0.762085, -0.601196, -14.160160, -34.729004, -39.611816
1361548, 0.537109, 0.788818, -0.506958, -27.160652, -39.062500, -56.884781
1361568, 0.380127, 0.824463, -0.417480, -30.517586, -43.273926, -63.415543
1361588, 0.240479, 0.843750, -0.395264, -31.311043, -41.076660, -61.035172
1361608, 0.116333, 0.877075, -0.344971, -28.747566, -30.029305, -51.757828
1361628, 0.046631, 0.911377, -0.267944, -20.996094, -17.272949, -36.926270
1361648, 0.076294, 0.914063, -0.300537, -4.150391, 3.112794, -13.977055
1361668, 0.165039, 0.901123, -0.359985, -0.061035, 11.352543, -4.394531
1361688, 0.245605, 0.907349, -0.351929, 2.624512, 11.779789, -0.671387
1361708, 0.268921, 0.909058, -0.329590, 7.141115, 6.530764, 0.488281
1361728, 0.269287, 0.904663, -0.333740, 12.084965, 2.014160, 0.915528
1361748, 0.232056, 0.907837, -0.324097, 17.822266, 0.427246, 2.319336
1361768, 0.228516, 0.895874, -0.360474, 23.071297, 1.159668, 5.493164
1361788, 0.247314, 0.874634, -0.427856, 24.108894, 4.394531, 7.263186
1361808, 0.285156, 0.861206, -0.468750, 20.568848, 4.638672, 7.446291
1361828, 0.279175, 0.857300, -0.472656, 14.465336, 1.892090, 5.920412
1361848, 0.260864, 0.854248, -0.471191, 10.925293, 1.037598, 6.958010
1361868, 0.266724, 0.854126, -0.477905, 7.385256, 2.380371, 8.117676
1361888, 0.272095, 0.851929, -0.471558, 3.906251, 4.455566, 8.850098
1361908, 0.292358, 0.857544, -0.447998, 1.708985, 4.882813, 8.911133
1361928, 0.295288, 0.864380, -0.426270, 1.892090, 6.713869, 7.995607
1361948, 0.308105, 0.860596, -0.431763, 2.624512, 7.690432, 7.202150
1361968, 0.321289, 0.859619, -0.433838, 2.502441, 6.408693, 5.676271
1361988, 0.316284, 0.858276, -0.427368, 2.868653, 4.821777, 4.577637
1362008, 0.322998, 0.859253, -0.429077, 3.662110, 3.967286, 3.295899
1362028, 0.332275, 0.846680, -0.468506, 1.647950, 2.746582, 1.220703
1362048, 0.346313, 0.848999, -0.463013, -1.098633, 0.366211, -1.281738
1362068, 0.328369, 0.856323, -0.438354, -2.258301, -2.075195, -3.479005
1362088, 0.314331, 0.857422, -0.427979, -1.892090, -2.868653, -4.394531
1362108, 0.313110, 0.856079, -0.426514, -1.403809, -2.746582, -5.493164
1362128, 0.300293, 0.866699, -0.427002, -0.732422, -3.295899, -5.798342
