timestamp,ax,ay,az,gx,gy,gz
3021866, 0.301880, 0.990479, -0.134155, 1.525879, 15.869144, 6.408693
3021886, 0.287476, 0.954712, -0.209473, 2.807618, -1.586915, -1.525879
3021906, 0.193359, 0.959717, -0.235229, -2.929688, -4.638672, -2.624512
3021926, 0.208252, 0.972900, -0.164429, -3.112794, -4.577637, -4.638672
3021946, 0.232788, 0.985718, -0.142700, 1.098633, -6.286623, -8.117676
3021966, 0.184082, 0.975464, -0.183228, 3.601075, -11.474613, -10.742188
3021986, 0.090698, 0.968506, -0.232788, 2.258301, -9.826660, -7.019045
3022006, 0.161255, 0.975708, -0.201660, 0.549316, -11.535648, -1.525879
3022026, 0.200195, 0.980835, -0.175659, 1.403809, -16.479492, -3.234864
3022046, 0.171387, 0.973389, -0.195190, 2.868653, -11.108402, -6.164553
3022066, 0.138428, 0.967529, -0.217407, 2.197266, -5.004883, -7.507326
3022086, 0.136597, 0.961426, -0.233765, 0.671387, 1.892090, -6.408693
3022106, 0.101563, 0.984009, -0.188110, -1.464844, -1.281738, -1.403809
3022126, 0.133179, 0.977051, -0.186646, -0.183106, -1.220703, 1.403809
3022146, 0.146240, 0.973267, -0.198242, 1.281738, -0.793457, 2.990724
3022166, 0.157104, 0.963135, -0.228394, -0.793457, -0.183106, 2.685547
3022186, 0.191772, 0.971313, -0.203247, -1.953125, 2.502441, 0.732422
3022386, 0.097656, 0.987915, -0.173340, -0.244141, -4.150391, -1.098633
3022406, 0.115234, 0.979614, -0.190308, 1.708985, 1.037598, 1.281738
3022426, 0.169312, 0.968628, -0.220825, 0.854492, 4.333496, 1.525879
3022446, 0.220825, 0.965942, -0.214478, -1.281738, 0.915528, -1.708985
3022466, 0.186890, 0.979492, -0.178955, -1.098633, -5.310059, -5.249023
3022486, 0.110229, 0.977783, -0.204956, 1.525879, -6.652834, -2.868653
3022506, 0.118774, 0.968384, -0.231445, -0.671387, -3.845216, -0.488281
3022526, 0.163818, 0.974731, -0.200439, -2.014160, 0.976563, -0.793457
3022546, 0.192749, 0.986084, -0.161865, -0.183106, -1.037598, -4.150391
3022566, 0.120850, 0.987061, -0.171021, 3.051759, -4.394531, -4.760742
3022586, 0.072144, 0.973145, -0.224121, 2.990724, -1.037598, 0.000000
3022606, 0.127808, 0.973877, -0.219971, 0.793457, 2.746582, 3.295899
3022626, 0.187500, 0.974121, -0.202881, -0.183106, 0.244141, 2.197266
3022646, 0.174438, 0.987183, -0.178589, 0.915528, -3.723145, -0.122070
3022666, 0.081543, 1.010864, -0.173706, 3.479005, -2.380371, 2.258301
3022686, 0.007813, 1.041870, -0.170532, 7.019045, 2.197266, 10.009766
3022706, 0.158936, 1.113403, -0.228271, 7.629396, 9.338379, 11.535648
3022726, 0.142334, 1.115967, -0.086182, 15.808109, -2.685547, 19.897461
3022746, 0.199341, 0.908325, -0.203979, 26.000984, -3.601075, 23.742683
3022766, 0.289063, 0.843628, -0.282349, 22.033691, -2.380371, 12.023930
3022786, 0.258667, 0.929077, -0.261475, 17.333984, -13.183598, 3.417970
3022806, 0.150757, 1.002930, -0.214966, 15.747074, -20.080566, 6.774904
3022826, 0.108154, 0.860474, -0.307251, 16.174316, -13.244633, 5.310059
3022846, 0.187744, 0.747070, -0.406006, -1.098633, 3.051759, -3.051759
3022866, 0.275391, 0.937988, -0.251587, -18.920898, 1.892090, -16.174316
3022886, 0.158447, 1.084351, -0.146362, -13.061527, -6.591799, -12.207035
3022906, 0.078491, 1.123779, -0.122314, 0.061035, -7.263186, -1.281738
3022926, 0.137695, 0.984375, -0.185791, 8.728027, -2.929688, 7.080080
3022946, 0.262329, 0.904419, -0.265381, 5.859377, -4.272461, 3.112794
3022966, 0.253174, 0.915039, -0.279541, 0.793457, -8.728027, -8.361816
3022986, 0.110718, 0.896606, -0.324951, -4.089355, -8.911133, -14.038090
3023006, 0.043335, 0.933472, -0.296509, -10.192871, -4.089355, -6.530764
3023026, 0.081055, 1.014526, -0.194702, -8.178711, 3.479005, 2.258301
3023046, 0.181641, 1.051147, -0.131226, 6.225588, 10.742188, 11.657719
3023066, 0.251343, 0.970703, -0.212646, 11.535648, 5.859377, 5.554201
3023086, 0.188843, 0.861938, -0.347900, 2.441406, 0.610352, -3.723145
3023126, 0.125732, 1.000244, -0.208618, -4.699707, 0.732422, -4.211426
3023146, 0.161255, 1.025146, -0.177368, 1.037598, 4.089355, 1.403809
3023166, 0.181885, 1.041992, -0.164917, 7.446291, 0.793457, 5.187988
3023186, 0.167114, 0.933350, -0.234009, 10.253906, -0.854492, 4.516602
3023206, 0.159912, 0.882202, -0.331177, 2.258301, 0.915528, -0.061035
3023226, 0.141235, 0.947998, -0.301270, -5.432129, 1.220703, -3.601075
3023266, 0.198730, 0.993286, -0.193604, 0.427246, 2.746582, 0.366211
3023286, 0.172852, 0.996460, -0.185303, 4.211426, -1.342773, 1.159668
3023306, 0.141113, 0.998657, -0.243164, 5.126953, -0.671387, 2.563477
3023326, 0.137085, 0.955200, -0.258423, 6.530764, 0.488281, 2.197266
3023346, 0.159424, 0.899292, -0.293945, 3.540040, 5.187988, 1.037598
3023366, 0.219849, 0.910889, -0.256104, -2.685547, 5.554201, 0.671387
3023386, 0.229248, 0.988403, -0.219727, -3.845216, -0.366211, -2.136230
3023406, 0.135254, 1.020996, -0.204834, -1.037598, -2.197266, -0.671387
3023426, 0.141602, 0.966309, -0.239502, 5.981447, 0.732422, 2.868653
3023446, 0.178101, 0.914673, -0.257690, 3.479005, 1.586915, 2.380371
3023466, 0.216919, 0.945557, -0.258423, -0.183106, 0.366211, 0.732422
3023486, 0.190674, 0.969727, -0.262939, -1.708985, -1.403809, -3.112794
3023506, 0.141357, 0.964233, -0.241089, -1.281738, -0.854492, -2.258301
3023526, 0.145264, 0.977051, -0.236938, 0.305176, 0.610352, -1.281738
3023546, 0.158447, 0.963867, -0.244019, 0.183106, -1.770020, -0.061035
3023566, 0.176147, 0.952759, -0.233643, -0.793457, -1.403809, 0.183106
3023586, 0.191162, 0.965820, -0.230957, -0.671387, 0.122070, -0.305176
3023606, 0.175659, 0.976318, -0.234131, 0.244141, -0.305176, -0.793457
3023626, 0.155762, 0.964111, -0.247681, 0.427246, 0.244141, 0.915528
3023646, 0.159668, 0.964966, -0.255371, 0.610352, -1.159668, -1.098633
3023666, 0.150391, 0.952271, -0.243774, -0.793457, 1.098633, 0.122070
3023686, 0.177856, 0.970215, -0.226563, 0.549316, 2.014160, 0.915528
3023706, 0.192139, 0.963135, -0.233032, 0.427246, 0.976563, -0.061035
3023726, 0.166016, 0.959229, -0.240356, 0.000000, 0.793457, -0.549316
3023746, 0.178711, 0.954834, -0.252197, -0.305176, 0.793457, -1.892090
3023766, 0.175049, 0.953979, -0.261963, -2.929688, -0.427246, -3.356935
3023786, 0.161011, 0.969849, -0.225098, -2.624512, -1.220703, -3.295899
3023806, 0.154663, 0.991089, -0.205566, 0.427246, -0.061035, 0.427246
3023826, 0.171021, 0.987183, -0.220459, 3.112794, 0.610352, 1.159668
3023846, 0.178711, 0.947388, -0.251343, 3.234864, -0.244141, 0.549316
3023866, 0.169800, 0.943481, -0.267944, -0.366211, -0.122070, -0.976563
3023886, 0.149414, 1.004028, -0.228027, 0.793457, -2.380371, -0.854492
3023906, 0.161865, 0.942871, -0.223999, 4.882813, -7.202150, -1.831055
3023926, 0.161987, 0.956787, -0.258057, 2.197266, -2.746582, -1.403809
3023946, 0.155396, 0.985229, -0.231934, 1.770020, -1.220703, 0.915528
3023966, 0.134033, 0.985718, -0.247803, 2.990724, 1.647950, 2.624512
3023986, 0.124512, 0.996338, -0.242188, 5.126953, 3.051759, 3.662110
3024006, 0.017944, 0.977173, -0.286743, 13.854984, 7.019045, 4.577637
3024026, -0.064941, 0.970825, -0.343018, 18.615723, 20.812988, 10.314941
3024046, -0.205811, 0.985718, -0.375854, 29.785164, 45.104996, 21.850586
3024066, -0.251709, 1.021729, -0.345093, 39.123535, 93.811066, 38.208008
3024086, -0.187378, 1.040039, -0.258789, 65.307617, 138.000488, 46.447769
3024106, -0.164551, 0.945557, -0.236572, 104.492218, 187.927307, 54.260269
3024126, -0.029419, 0.762329, -0.290894, 134.704590, 245.117249, 61.096207
3024166, 0.495728, 0.648193, -0.393188, 104.126007, 280.212402, 49.865738
3024186, 0.818726, 0.717773, -0.167480, 48.645035, 174.377441, 32.348633
3024206, 0.869019, 0.696411, -0.042725, 27.648933, 89.843781, 16.845703
3024226, 0.918579, 0.654053, -0.066406, -4.028320, 38.635254, -10.498047
3024246, 0.783936, 0.714478, -0.113159, -47.241226, 7.934572, -30.090340
3024266, 0.576904, 1.678833, 0.353638, -52.551285, -35.888672, 40.588379
3024286, 0.971802, 0.862671, 0.184448, 0.793457, -34.484863, 13.183598
3024306, 0.550781, 0.841309, -0.103394, 17.333984, -31.372078, -18.615723
3024326, 0.296265, 0.859985, -0.310425, 23.925789, -31.677254, -5.004883
3024346, 0.367798, 0.790039, -0.507080, 11.779789, -1.770020, 0.366211
3024366, 0.335449, 0.820679, -0.390503, -1.464844, 30.761726, 10.192871
3024386, 0.551025, 0.834961, -0.260376, -4.394531, 30.273445, 9.704590
3024406, 0.594482, 0.847046, -0.197021, -1.586915, 14.343266, 6.408693
3024426, 0.600952, 0.849609, -0.176392, 4.638672, -13.610844, 3.234864
3024446, 0.580200, 0.828247, -0.251099, 8.666992, -23.559578, -2.136230
3024466, 0.515747, 0.821655, -0.311890, 8.056641, -23.254402, -7.934572
3024486, 0.435791, 0.826904, -0.315918, 5.371094, -15.380863, -7.080080
3024506, 0.420410, 0.829834, -0.329590, 2.929688, -10.437012, -3.234864
3024526, 0.405518, 0.833252, -0.326050, 0.427246, -2.929688, 2.258301
3024546, 0.442871, 0.826660, -0.319458, -2.075195, 4.028320, 5.737307
3024566, 0.538330, 0.824097, -0.296631, -3.356935, 3.295899, 4.455566
3024586, 0.528931, 0.833008, -0.271240, -3.601075, 0.671387, 1.220703
3024606, 0.523560, 0.841797, -0.233032, -0.488281, -3.417970, -0.854492
3024646, 0.503174, 0.830811, -0.294678, 6.103518, -8.178711, -3.479005
3024666, 0.471069, 0.825562, -0.321777, 4.394531, -9.765625, -3.356935
3024686, 0.437744, 0.821899, -0.335083, 1.220703, -8.056641, -0.244141
3024706, 0.468018, 0.834229, -0.330933, -1.953125, -6.469728, 2.380371
3024726, 0.506348, 0.818970, -0.297974, -3.601075, -9.399414, 2.197266
3024746, 0.484863, 0.841309, -0.272705, -2.197266, -6.774904, 0.793457
3024766, 0.479492, 0.841187, -0.257935, 2.502441, -4.699707, -0.061035
3024786, 0.478882, 0.837036, -0.290161, 5.432129, -1.525879, 0.427246
3024806, 0.477173, 0.820435, -0.337646, 3.723145, 0.122070, -0.122070
3024826, 0.487793, 0.818604, -0.344727, 0.061035, -2.319336, 0.854492
3024846, 0.472046, 0.828003, -0.304932, -2.014160, -1.770020, 0.854492
3024866, 0.514038, 0.834473, -0.276367, -0.732422, -2.685547, 0.854492
3024886, 0.517944, 0.836182, -0.274536, 1.647950, -6.347658, -1.831055
3024906, 0.485718, 0.828247, -0.308472, 2.624512, -7.263186, -3.173829
3024926, 0.462158, 0.828003, -0.317627, 1.831055, -5.493164, -2.624512
3024946, 0.450195, 0.831909, -0.314819, 0.488281, -2.563477, 0.000000
3024966, 0.445557, 0.833740, -0.302002, 0.732422, 1.464844, 1.831055
3024986, 0.513184, 0.828979, -0.286743, 1.464844, 1.342773, 2.868653
3025006, 0.637695, 0.824951, -0.281250, 3.356935, -14.953617, -2.502441
3025046, 0.435181, 0.829346, -0.339233, -2.075195, -45.654312, -8.300781
3025066, 0.425781, 0.843140, -0.294434, -1.403809, -35.888672, -5.371094
3025086, 0.560669, 0.822632, -0.322388, -0.122070, -44.067383, -7.751467
3025106, 0.521240, 0.766602, -0.377197, -29.296883, -43.823242, 0.122070
3025126, 0.471436, 0.836182, -0.252808, -36.865234, -53.161636, 10.620117
3025146, 0.343506, 0.882935, -0.309692, -22.583015, -31.616219, 7.324221
3025186, 0.232300, 0.852173, -0.427856, -3.967286, -7.263186, 1.464844
3025206, 0.397583, 0.840942, -0.359497, -8.178711, -0.061035, 13.305668
3025246, 0.416138, 0.885132, -0.294067, -7.995607, -24.780281, 20.568848
3025266, 0.871826, 0.965454, -0.472778, -37.658691, -19.348145, -14.770512
3025286, 0.782837, 0.944336, -0.227539, -57.434097, -40.710449, -74.707031
3025306, 0.779419, 0.775635, -0.440918, -78.308105, -45.715347, -121.582062
3025326, 0.360229, 0.691528, -0.464844, -108.154327, -77.026367, -141.845703
3025426, 0.160278, 1.041748, 0.040161, 7.446291, -20.141602, -31.738289
3025446, 0.160645, 1.060669, -0.009033, 24.292000, -17.333984, -33.813477
3025466, -0.096802, 1.122925, 0.096191, 47.668472, -21.911621, -19.775391
3025486, -0.714355, 1.166382, 0.152832, 134.948730, -31.311043, 27.282722
3025506, -0.417480, 0.959717, -0.637207, 124.328644, 108.459503, 94.604523
3025526, 0.165161, 0.559692, -0.258057, 116.088898, 106.872589, 114.318878
3025546, 0.403442, 0.468140, -0.450562, 99.060089, 106.506378, 104.858429
3025566, 0.780273, 0.493530, -0.808594, 16.967773, 131.835938, 40.466309
3025586, 0.669067, 0.782593, -0.683594, -61.950699, 82.519531, -22.338875
3025606, 0.402100, 1.519165, 0.168579, -33.020020, 19.409180, 22.766121
3025626, 0.905640, 0.804932, -0.314453, -27.954109, -51.879898, 4.638672
3025646, 0.763794, 0.932861, -0.157349, -22.399910, -150.207520, -10.986328
3025666, 0.316650, 0.820435, -0.251099, -52.185074, -174.865723, 4.638672
3025686, 0.178833, 0.957153, -0.070190, -67.260742, -125.610382, 39.062500
3025706, 0.277588, 0.928467, -0.258301, -56.701675, -74.829102, 26.062019
3025746, 0.109741, 0.948730, -0.341553, -15.930180, -33.203125, 2.197266
