timestamp,ax,ay,az,gx,gy,gz
1766806, 0.540283, 0.464233, -0.713501, 0.427246, -1.708985, -1.953125
1766826, 0.546021, 0.475098, -0.720337, -0.549316, -0.488281, -1.159668
1766846, 0.550171, 0.474121, -0.699585, 0.244141, -0.610352, -0.549316
1766866, 0.550415, 0.459595, -0.705811, 0.122070, -1.647950, -1.892090
1766886, 0.542236, 0.464600, -0.710327, -0.732422, -0.976563, -1.525879
1766906, 0.543945, 0.469604, -0.709717, -0.610352, -0.732422, -1.770020
1766926, 0.546387, 0.476196, -0.708130, -0.549316, -0.305176, -1.037598
1766946, 0.545410, 0.479492, -0.710083, -0.244141, -0.244141, 0.305176
1766966, 0.550415, 0.466919, -0.705200, 0.122070, -0.488281, 0.549316
1766986, 0.540283, 0.459106, -0.708618, -0.793457, -0.366211, -0.366211
1767006, 0.543335, 0.460449, -0.708862, -1.342773, -0.366211, -1.464844
1767026, 0.545776, 0.461426, -0.708130, -1.831055, -0.427246, -2.380371
1767046, 0.549927, 0.462280, -0.703003, -2.014160, -0.671387, -3.479005
1767066, 0.542603, 0.464233, -0.704224, -2.136230, -1.098633, -3.784181
1767086, 0.545898, 0.473389, -0.708618, -2.624512, -1.708985, -3.601075
1767106, 0.543335, 0.480347, -0.703979, -2.563477, -1.037598, -3.417970
1767126, 0.545166, 0.475342, -0.700806, -2.380371, -1.159668, -3.234864
1767146, 0.544678, 0.470093, -0.702515, -2.746582, -1.037598, -3.601075
1767166, 0.539307, 0.481567, -0.705322, -3.479005, -1.342773, -4.638672
1767186, 0.541260, 0.495972, -0.708130, -3.295899, -1.525879, -3.540040
1767206, 0.538574, 0.500854, -0.703613, -2.075195, -2.075195, -1.892090
1767226, 0.542236, 0.476440, -0.703613, -1.464844, -1.037598, -1.892090
1767246, 0.530640, 0.477539, -0.704834, -2.990724, -1.647950, -3.112794
1767266, 0.539795, 0.490479, -0.701172, -3.356935, -1.647950, -2.868653
1767286, 0.535767, 0.492188, -0.700439, -1.586915, -2.319336, -2.563477
1767306, 0.529053, 0.483887, -0.709473, -1.770020, -1.953125, -3.540040
1767326, 0.526123, 0.492065, -0.709229, -3.234864, -2.319336, -4.638672
1767346, 0.526489, 0.500854, -0.703613, -3.479005, -1.953125, -4.821777
1767366, 0.532593, 0.488159, -0.694458, -2.746582, -1.708985, -5.920412
1767386, 0.532471, 0.470337, -0.695190, -3.601075, -1.464844, -7.995607
1767406, 0.527466, 0.501587, -0.706665, -5.615236, -1.647950, -7.629396
1767426, 0.529297, 0.541870, -0.702026, -4.272461, -1.098633, -4.211426
1767446, 0.534546, 0.541260, -0.699219, -1.525879, -1.342773, -2.319336
1767466, 0.526855, 0.509644, -0.691162, -0.305176, -1.708985, -1.586915
1767486, 0.524048, 0.498657, -0.703369, -1.831055, -1.464844, -3.112794
1767506, 0.521484, 0.521484, -0.704956, -2.563477, -1.037598, -3.295899
1767526, 0.520996, 0.523926, -0.699219, -1.831055, -0.366211, -2.502441
1767546, 0.521118, 0.506592, -0.693848, -1.586915, -0.549316, -3.112794
1767566, 0.522705, 0.507080, -0.700439, -2.319336, -0.793457, -4.638672
1767586, 0.524292, 0.522217, -0.699707, -1.892090, -0.183106, -5.065918
1767606, 0.533936, 0.522217, -0.697388, -0.427246, -0.732422, -6.958010
1767626, 0.522949, 0.533447, -0.694702, -2.197266, -0.122070, -6.042482
1767646, 0.522217, 0.522949, -0.667725, -0.488281, 0.671387, -4.150391
1767666, 0.524414, 0.508911, -0.703125, -3.540040, -0.854492, -10.742188
1767686, 0.501587, 0.514282, -0.698364, -4.455566, -2.624512, -12.756351
1767706, 0.495728, 0.523926, -0.707275, -4.699707, -1.281738, -13.305668
1767726, 0.493530, 0.530762, -0.696289, -4.516602, -1.159668, -12.451176
1767746, 0.498779, 0.550415, -0.693970, -3.845216, -0.427246, -10.314941
1767766, 0.504517, 0.560913, -0.679565, -2.319336, -0.305176, -5.187988
1767786, 0.522583, 0.548828, -0.673828, -0.915528, -0.427246, -2.075195
1767807, 0.520020, 0.527344, -0.663330, -1.159668, 0.061035, -1.098633
1767827, 0.506104, 0.538940, -0.677002, -1.770020, 1.220703, -1.525879
1767847, 0.503052, 0.557617, -0.693481, -0.366211, 1.159668, 0.183106
1767867, 0.501709, 0.532837, -0.689575, 0.000000, 1.586915, 1.525879
1767887, 0.502930, 0.524658, -0.694458, -1.708985, 1.525879, 0.427246
1767907, 0.499146, 0.535522, -0.688599, -2.258301, 1.770020, -1.525879
1767927, 0.511475, 0.538940, -0.679321, 0.122070, 0.244141, -2.136230
1767947, 0.503296, 0.532471, -0.687012, 1.220703, 1.892090, -2.563477
1767967, 0.495728, 0.532959, -0.688599, -0.549316, 2.319336, -3.112794
1767987, 0.497070, 0.521362, -0.685181, -1.037598, 2.868653, -3.723145
1768007, 0.380981, 0.500000, -0.644775, 6.286623, -30.029305, 12.573246
1768027, 0.544312, 0.531738, -0.709961, -4.821777, 22.094727, -4.943848
1768047, 0.439819, 0.532349, -0.639526, 3.417970, 4.516602, 2.868653
1768067, 0.552856, 0.555786, -0.731689, -3.479005, 34.118652, -4.699707
1768087, 0.483887, 0.551636, -0.650879, -4.150391, 27.343758, -1.220703
1768107, 0.485596, 0.548584, -0.644775, -1.159668, 26.184090, 7.690432
1768127, 0.551392, 0.610962, -0.645142, -4.760742, 40.832520, 3.234864
1768147, 0.579834, 0.586182, -0.634155, -1.037598, 41.381836, 4.516602
1768167, 0.570068, 0.550171, -0.622803, -7.629396, 32.409668, 4.638672
1768187, 0.634033, 0.574829, -0.571899, -5.615236, 28.076180, 4.699707
1768207, 0.669067, 0.561890, -0.597168, -2.502441, 13.122562, 2.014160
1768227, 0.659912, 0.562256, -0.600464, -0.427246, -11.840824, -1.586915
1768247, 0.629883, 0.562378, -0.604004, 0.976563, -25.146492, -2.258301
1768267, 0.641724, 0.560791, -0.628052, 1.708985, -44.128418, -2.258301
1768287, 0.512085, 0.497314, -0.646606, -12.451176, -36.499023, 9.216309
1768307, 0.550537, 0.552490, -0.526489, -22.583015, -14.099125, 27.160652
1768327, 0.651245, 0.573364, -0.569580, -19.775391, -10.559082, 25.878914
1768347, 0.602905, 0.572021, -0.614990, -18.249512, -13.793949, 21.118164
1768367, 0.563965, 0.566162, -0.653320, -14.587406, -20.324707, 15.441898
1768387, 0.498901, 0.554199, -0.696411, -9.216309, -23.803719, 7.385256
1768407, 0.390747, 0.547974, -0.727295, -3.723145, -9.948730, 3.417970
1768427, 0.420776, 0.531860, -0.720459, -4.028320, 8.422852, 3.906251
1768447, 0.537598, 0.557983, -0.630249, -7.202150, 17.883301, 6.958010
1768467, 0.595459, 0.574585, -0.584961, -4.089355, 16.906738, 7.141115
1768487, 0.603638, 0.659668, -0.642700, -6.103518, 8.483887, 0.549316
1768507, 0.636353, 0.687012, -0.619873, -11.169437, -6.164553, -7.812502
1768527, 0.590210, 0.675659, -0.608765, -12.817387, -23.193367, -16.113281
1768547, 0.525757, 0.606079, -0.635498, -16.662598, -20.019531, -22.705086
1768567, 0.526855, 0.565918, -0.666626, -20.324707, -10.986328, -21.972656
1768587, 0.537964, 0.533936, -0.704468, -26.245125, -9.094238, -22.033691
1768607, 0.525024, 0.698730, -0.606079, -31.738289, -8.789063, -19.592285
1768627, 0.586792, 0.627441, -0.590210, -29.235847, 11.352543, -31.616219
1768647, 0.546021, 0.665405, -0.654297, -40.161133, 3.356935, -34.423828
1768667, 0.613770, 0.661255, -0.571533, -43.334961, -5.004883, -40.161133
1768687, 0.570435, 0.593506, -0.508789, -39.245605, -28.259285, -40.466309
1768707, 0.514771, 0.590698, -0.516235, -31.127937, -34.790039, -34.729004
1768727, 0.478516, 0.651367, -0.562988, -26.733406, -28.076180, -33.203125
1768747, 0.450562, 0.644775, -0.548950, -22.888191, -23.559578, -30.761726
1768767, 0.398682, 0.600342, -0.546509, -17.456055, -18.371582, -24.047859
1768787, 0.368530, 0.677979, -0.543823, -1.892090, -4.516602, -5.126953
1768807, 0.381836, 0.724121, -0.562500, 1.953125, -0.061035, -0.305176
1768827, 0.425171, 0.722900, -0.592163, -0.488281, 7.690432, -0.061035
1768847, 0.447754, 0.722778, -0.545044, -0.366211, 7.751467, -0.671387
1768867, 0.477905, 0.734619, -0.541382, 2.746582, 2.746582, -1.098633
1768887, 0.477539, 0.739014, -0.550293, 5.371094, -3.601075, -2.868653
1768907, 0.515259, 0.703857, -0.590698, 7.629396, -8.117676, -4.455566
1768927, 0.504883, 0.628906, -0.354736, 30.456551, -27.099617, -0.915528
1768947, 0.341064, 0.686035, -0.271362, 97.229034, -36.376953, 21.850586
1768967, 0.387939, 0.553345, -0.650024, 120.300323, -6.835939, 26.672371
1768987, 0.373657, 0.502441, -0.918213, 65.307617, 18.859863, 7.568361
1769007, 0.319092, 0.573242, -0.819946, 29.663094, 28.015144, -5.004883
1769027, 0.378174, 0.634155, -0.727539, 20.202637, 27.587898, -12.756351
1769047, 0.411011, 0.668945, -0.726807, 20.446777, 22.888191, -16.357422
1769067, 0.388794, 0.652100, -0.737549, 9.887695, 19.653320, -15.625004
1769087, 0.414307, 0.609131, -0.692017, -2.014160, 18.554688, -16.052246
1769107, 0.344849, 0.718018, -0.638062, -3.540040, 24.353035, -10.131836
1769127, 0.445801, 0.696045, -0.586426, -3.540040, 49.865738, 12.023930
1769147, 0.624146, 0.628662, -0.584717, -10.498047, 44.738785, 10.986328
1769167, 0.658081, 0.638672, -0.541260, 1.220703, 0.976563, 3.906251
1769187, 0.585571, 0.624268, -0.620483, 4.882813, -22.827156, -2.746582
1769207, 0.586670, 0.620361, -0.661255, 4.089355, -38.085938, -4.211426
1769227, 0.633667, 0.616699, -0.672852, 2.441406, -72.631836, -8.300781
1769247, 0.348999, 0.573975, -0.703979, -28.259285, -58.776871, 20.812988
1769267, 0.473511, 0.638428, -0.477295, -39.184570, -37.048340, 49.133316
1769287, 0.513306, 0.658081, -0.513916, -28.259285, -18.432617, 45.227066
1769307, 0.415649, 0.629150, -0.633179, -19.714355, 1.220703, 38.696289
1769327, 0.505737, 0.631958, -0.721191, -15.380863, -3.723145, 26.123055
1769347, 0.430420, 0.613892, -0.757813, -8.850098, -26.977547, 9.704590
1769367, 0.299316, 0.607422, -0.737793, -10.375977, -25.207527, 9.155273
1769387, 0.347412, 0.625610, -0.694702, -8.789063, -7.446291, 9.216309
1769407, 0.431519, 0.626221, -0.683228, -5.126953, -5.126953, 3.417970
1769427, 0.431519, 0.631104, -0.647949, -4.150391, -2.502441, 3.112794
1769447, 0.457520, 0.633789, -0.629028, -2.319336, 3.356935, 2.441406
1769467, 0.468994, 0.634521, -0.619019, 0.976563, 6.469728, 1.037598
1769487, 0.460449, 0.623535, -0.643311, 2.746582, 9.033203, 0.427246
1769507, 0.471802, 0.616211, -0.660278, 2.502441, 8.239746, 0.183106
1769527, 0.451294, 0.617065, -0.661621, 1.098633, 8.605957, 0.671387
1769547, 0.448364, 0.621094, -0.647583, 0.427246, 9.460449, 2.929688
1769567, 0.474976, 0.623169, -0.640381, 0.793457, 12.329105, 3.479005
1769587, 0.499512, 0.626343, -0.637573, 1.342773, 11.596684, 2.685547
1769607, 0.461792, 0.650269, -0.638550, 2.868653, 14.953617, 2.197266
1769627, 0.456177, 0.689087, -0.650879, 6.591799, 24.719246, 5.371094
1769647, 0.583374, 0.849609, -0.735352, 5.310059, 28.259285, -2.197266
